File: H2O_REF_ISOTHERMS/AIF/h2o_cubtc_300K.aif
data_H2O_CuBTC_300K
_exptl_temperature 300
_adsnt_material_id CuBTC
_simltn_adsorbent_filename 'data.CuBTC_CaleroIV_rep111'
_units_temperature K
_units_fugacity PA
_units_pressure RELATIVE
_units_loading MOL-PER-KiloGM
_units_qst KiloJ-PER-MOL
_exptl_isotherm_type absolute
_exptl_adsorptive_name 'Water'
_simltn_forcefield_adsorptive 'SPC/E H2O; 10ang linear-force shift'
_simltn_forcefield_adsorbent 'see adsorbent file'

loop_
_adsorp_fugacity
_adsorp_pressure
_adsorp_amount
_adsorp_amount_uncertainty
8.53719e+00  6.75520e-03  8.10892e-03  1.11096e-04
8.57998e+00  6.78906e-03  8.14955e-03  1.11629e-04
8.62299e+00  6.82309e-03  8.19039e-03  1.12165e-04
8.66621e+00  6.85729e-03  8.23143e-03  1.12704e-04
8.70965e+00  6.89166e-03  8.27267e-03  1.13245e-04
8.75331e+00  6.92621e-03  8.31413e-03  1.13789e-04
8.79718e+00  6.96093e-03  8.35579e-03  1.14335e-04
8.84128e+00  6.99582e-03  8.39766e-03  1.14883e-04
8.88560e+00  7.03089e-03  8.43973e-03  1.15434e-04
8.93014e+00  7.06613e-03  8.48202e-03  1.15988e-04
8.97490e+00  7.10155e-03  8.52452e-03  1.16544e-04
9.01989e+00  7.13715e-03  8.56724e-03  1.17102e-04
9.06510e+00  7.17293e-03  8.61017e-03  1.17664e-04
9.11054e+00  7.20888e-03  8.65331e-03  1.18227e-04
9.15620e+00  7.24502e-03  8.69667e-03  1.18793e-04
9.20210e+00  7.28134e-03  8.74024e-03  1.19362e-04
9.24823e+00  7.31783e-03  8.78404e-03  1.19934e-04
9.29458e+00  7.35452e-03  8.82805e-03  1.20508e-04
9.34117e+00  7.39138e-03  8.87229e-03  1.21084e-04
9.38800e+00  7.42843e-03  8.91674e-03  1.21664e-04
9.43505e+00  7.46567e-03  8.96142e-03  1.22245e-04
9.48235e+00  7.50309e-03  9.00632e-03  1.22830e-04
9.52988e+00  7.54070e-03  9.05145e-03  1.23417e-04
9.57765e+00  7.57850e-03  9.09680e-03  1.24007e-04
9.62565e+00  7.61649e-03  9.14238e-03  1.24599e-04
9.67390e+00  7.65467e-03  9.18819e-03  1.25194e-04
9.72239e+00  7.69304e-03  9.23423e-03  1.25792e-04
9.77113e+00  7.73160e-03  9.28050e-03  1.26393e-04
9.82010e+00  7.77036e-03  9.32700e-03  1.26996e-04
9.86933e+00  7.80931e-03  9.37373e-03  1.27602e-04
9.91880e+00  7.84846e-03  9.42070e-03  1.28211e-04
9.96852e+00  7.88780e-03  9.46790e-03  1.28822e-04
1.00185e+01  7.92734e-03  9.51534e-03  1.29436e-04
1.00687e+01  7.96708e-03  9.56302e-03  1.30053e-04
1.01192e+01  8.00701e-03  9.61093e-03  1.30673e-04
1.01699e+01  8.04715e-03  9.65909e-03  1.31296e-04
1.02209e+01  8.08749e-03  9.70748e-03  1.31921e-04
1.02721e+01  8.12803e-03  9.75612e-03  1.32549e-04
1.03236e+01  8.16877e-03  9.80501e-03  1.33180e-04
1.03753e+01  8.20972e-03  9.85413e-03  1.33814e-04
1.04273e+01  8.25087e-03  9.90351e-03  1.34451e-04
1.04796e+01  8.29223e-03  9.95313e-03  1.35090e-04
1.05321e+01  8.33380e-03  1.00030e-02  1.35732e-04
1.05849e+01  8.37557e-03  1.00531e-02  1.36378e-04
1.06380e+01  8.41756e-03  1.01035e-02  1.37026e-04
1.06913e+01  8.45975e-03  1.01541e-02  1.37677e-04
1.07449e+01  8.50216e-03  1.02050e-02  1.38330e-04
1.07988e+01  8.54478e-03  1.02561e-02  1.38987e-04
1.08529e+01  8.58761e-03  1.03075e-02  1.39647e-04
1.09073e+01  8.63066e-03  1.03591e-02  1.40310e-04
1.09620e+01  8.67392e-03  1.04110e-02  1.40975e-04
1.10169e+01  8.71740e-03  1.04632e-02  1.41644e-04
1.10721e+01  8.76110e-03  1.05156e-02  1.42316e-04
1.11276e+01  8.80501e-03  1.05683e-02  1.42990e-04
1.11834e+01  8.84915e-03  1.06213e-02  1.43668e-04
1.12395e+01  8.89351e-03  1.06745e-02  1.44348e-04
1.12958e+01  8.93809e-03  1.07280e-02  1.45032e-04
1.13524e+01  8.98289e-03  1.07817e-02  1.45718e-04
1.14093e+01  9.02792e-03  1.08357e-02  1.46408e-04
1.14665e+01  9.07318e-03  1.08900e-02  1.47101e-04
1.15240e+01  9.11866e-03  1.09446e-02  1.47796e-04
1.15818e+01  9.16437e-03  1.09994e-02  1.48495e-04
1.16398e+01  9.21031e-03  1.10545e-02  1.49197e-04
1.16982e+01  9.25648e-03  1.11099e-02  1.49902e-04
1.17568e+01  9.30288e-03  1.11656e-02  1.50610e-04
1.18157e+01  9.34951e-03  1.12215e-02  1.51321e-04
1.18750e+01  9.39638e-03  1.12777e-02  1.52036e-04
1.19345e+01  9.44348e-03  1.13342e-02  1.52753e-04
1.19943e+01  9.49082e-03  1.13910e-02  1.53474e-04
1.20544e+01  9.53839e-03  1.14481e-02  1.54198e-04
1.21148e+01  9.58620e-03  1.15055e-02  1.54925e-04
1.21756e+01  9.63426e-03  1.15631e-02  1.55655e-04
1.22366e+01  9.68255e-03  1.16210e-02  1.56388e-04
1.22979e+01  9.73109e-03  1.16793e-02  1.57125e-04
1.23596e+01  9.77987e-03  1.17378e-02  1.57865e-04
1.24215e+01  9.82889e-03  1.17966e-02  1.58608e-04
1.24838e+01  9.87816e-03  1.18557e-02  1.59354e-04
1.25464e+01  9.92768e-03  1.19151e-02  1.60103e-04
1.26093e+01  9.97744e-03  1.19748e-02  1.60856e-04
1.26725e+01  1.00275e-02  1.20348e-02  1.61612e-04
1.27360e+01  1.00777e-02  1.20951e-02  1.62372e-04
1.27998e+01  1.01282e-02  1.21557e-02  1.63134e-04
1.28640e+01  1.01790e-02  1.22166e-02  1.63900e-04
1.29285e+01  1.02300e-02  1.22778e-02  1.64670e-04
1.29933e+01  1.02813e-02  1.23393e-02  1.65442e-04
1.30584e+01  1.03329e-02  1.24011e-02  1.66218e-04
1.31239e+01  1.03846e-02  1.24632e-02  1.66998e-04
1.31896e+01  1.04367e-02  1.25257e-02  1.67780e-04
1.32558e+01  1.04890e-02  1.25884e-02  1.68567e-04
1.33222e+01  1.05416e-02  1.26515e-02  1.69356e-04
1.33890e+01  1.05944e-02  1.27149e-02  1.70149e-04
1.34561e+01  1.06476e-02  1.27786e-02  1.70945e-04
1.35235e+01  1.07009e-02  1.28426e-02  1.71745e-04
1.35913e+01  1.07546e-02  1.29069e-02  1.72548e-04
1.36595e+01  1.08085e-02  1.29716e-02  1.73355e-04
1.37279e+01  1.08627e-02  1.30366e-02  1.74165e-04
1.37967e+01  1.09171e-02  1.31019e-02  1.74979e-04
1.38659e+01  1.09718e-02  1.31675e-02  1.75796e-04
1.39354e+01  1.10268e-02  1.32335e-02  1.76616e-04
1.40052e+01  1.10821e-02  1.32998e-02  1.77440e-04
1.40754e+01  1.11377e-02  1.33664e-02  1.78268e-04
1.41460e+01  1.11935e-02  1.34334e-02  1.79099e-04
1.42169e+01  1.12496e-02  1.35007e-02  1.79934e-04
1.42882e+01  1.13060e-02  1.35683e-02  1.80772e-04
1.43598e+01  1.13627e-02  1.36363e-02  1.81614e-04
1.44318e+01  1.14196e-02  1.37046e-02  1.82459e-04
1.45041e+01  1.14769e-02  1.37732e-02  1.83308e-04
1.45768e+01  1.15344e-02  1.38422e-02  1.84161e-04
1.46499e+01  1.15922e-02  1.39116e-02  1.85017e-04
1.47233e+01  1.16503e-02  1.39813e-02  1.85877e-04
1.47971e+01  1.17087e-02  1.40513e-02  1.86741e-04
1.48713e+01  1.17674e-02  1.41217e-02  1.87608e-04
1.49458e+01  1.18264e-02  1.41924e-02  1.88479e-04
1.50207e+01  1.18857e-02  1.42635e-02  1.89353e-04
1.50960e+01  1.19453e-02  1.43350e-02  1.90231e-04
1.51717e+01  1.20052e-02  1.44068e-02  1.91113e-04
1.52477e+01  1.20653e-02  1.44790e-02  1.91999e-04
1.53242e+01  1.21258e-02  1.45515e-02  1.92888e-04
1.54010e+01  1.21866e-02  1.46244e-02  1.93781e-04
1.54782e+01  1.22477e-02  1.46977e-02  1.94678e-04
1.55558e+01  1.23091e-02  1.47713e-02  1.95578e-04
1.56337e+01  1.23708e-02  1.48453e-02  1.96483e-04
1.57121e+01  1.24328e-02  1.49197e-02  1.97391e-04
1.57909e+01  1.24951e-02  1.49944e-02  1.98302e-04
1.58700e+01  1.25578e-02  1.50695e-02  1.99218e-04
1.59496e+01  1.26207e-02  1.51450e-02  2.00138e-04
1.60295e+01  1.26840e-02  1.52209e-02  2.01061e-04
1.61099e+01  1.27476e-02  1.52971e-02  2.01988e-04
1.61906e+01  1.28115e-02  1.53737e-02  2.02919e-04
1.62718e+01  1.28757e-02  1.54507e-02  2.03854e-04
1.63533e+01  1.29402e-02  1.55281e-02  2.04793e-04
1.64353e+01  1.30051e-02  1.56059e-02  2.05735e-04
1.65177e+01  1.30703e-02  1.56841e-02  2.06682e-04
1.66005e+01  1.31358e-02  1.57627e-02  2.07632e-04
1.66837e+01  1.32016e-02  1.58416e-02  2.08586e-04
1.67673e+01  1.32678e-02  1.59210e-02  2.09545e-04
1.68514e+01  1.33343e-02  1.60007e-02  2.10507e-04
1.69358e+01  1.34012e-02  1.60809e-02  2.11473e-04
1.70207e+01  1.34684e-02  1.61614e-02  2.12443e-04
1.71060e+01  1.35359e-02  1.62424e-02  2.13417e-04
1.71918e+01  1.36037e-02  1.63238e-02  2.14395e-04
1.72780e+01  1.36719e-02  1.64055e-02  2.15377e-04
1.73646e+01  1.37405e-02  1.64877e-02  2.16363e-04
1.74516e+01  1.38093e-02  1.65703e-02  2.17353e-04
1.75391e+01  1.38786e-02  1.66533e-02  2.18347e-04
1.76270e+01  1.39481e-02  1.67367e-02  2.19345e-04
1.77154e+01  1.40180e-02  1.68206e-02  2.20347e-04
1.78042e+01  1.40883e-02  1.69048e-02  2.21354e-04
1.78934e+01  1.41589e-02  1.69895e-02  2.22364e-04
1.79831e+01  1.42299e-02  1.70746e-02  2.23378e-04
1.80732e+01  1.43012e-02  1.71601e-02  2.24397e-04
1.81638e+01  1.43729e-02  1.72461e-02  2.25419e-04
1.82549e+01  1.44450e-02  1.73325e-02  2.26446e-04
1.83464e+01  1.45174e-02  1.74193e-02  2.27477e-04
1.84383e+01  1.45902e-02  1.75065e-02  2.28512e-04
1.85308e+01  1.46633e-02  1.75942e-02  2.29551e-04
1.86236e+01  1.47368e-02  1.76823e-02  2.30594e-04
1.87170e+01  1.48107e-02  1.77709e-02  2.31642e-04
1.88108e+01  1.48849e-02  1.78599e-02  2.32693e-04
1.89051e+01  1.49595e-02  1.79494e-02  2.33749e-04
1.89999e+01  1.50345e-02  1.80393e-02  2.34809e-04
1.90951e+01  1.51099e-02  1.81297e-02  2.35873e-04
1.91908e+01  1.51856e-02  1.82205e-02  2.36941e-04
1.92870e+01  1.52618e-02  1.83117e-02  2.38014e-04
1.93837e+01  1.53383e-02  1.84034e-02  2.39091e-04
1.94808e+01  1.54152e-02  1.84956e-02  2.40172e-04
1.95785e+01  1.54924e-02  1.85883e-02  2.41257e-04
1.96766e+01  1.55701e-02  1.86814e-02  2.42347e-04
1.97753e+01  1.56482e-02  1.87749e-02  2.43441e-04
1.98744e+01  1.57266e-02  1.88690e-02  2.44539e-04
1.99740e+01  1.58054e-02  1.89635e-02  2.45642e-04
2.00741e+01  1.58847e-02  1.90585e-02  2.46749e-04
2.01747e+01  1.59643e-02  1.91539e-02  2.47860e-04
2.02759e+01  1.60443e-02  1.92499e-02  2.48975e-04
2.03775e+01  1.61247e-02  1.93463e-02  2.50095e-04
2.04797e+01  1.62056e-02  1.94432e-02  2.51219e-04
2.05823e+01  1.62868e-02  1.95406e-02  2.52348e-04
2.06855e+01  1.63685e-02  1.96384e-02  2.53480e-04
2.07892e+01  1.64505e-02  1.97368e-02  2.54618e-04
2.08934e+01  1.65330e-02  1.98357e-02  2.55759e-04
2.09981e+01  1.66159e-02  1.99350e-02  2.56905e-04
2.11033e+01  1.66992e-02  2.00348e-02  2.58056e-04
2.12091e+01  1.67829e-02  2.01352e-02  2.59211e-04
2.13154e+01  1.68670e-02  2.02360e-02  2.60370e-04
2.14223e+01  1.69515e-02  2.03374e-02  2.61534e-04
2.15297e+01  1.70365e-02  2.04393e-02  2.62702e-04
2.16376e+01  1.71219e-02  2.05416e-02  2.63874e-04
2.17460e+01  1.72078e-02  2.06445e-02  2.65051e-04
2.18550e+01  1.72940e-02  2.07479e-02  2.66233e-04
2.19646e+01  1.73807e-02  2.08518e-02  2.67419e-04
2.20747e+01  1.74678e-02  2.09563e-02  2.68609e-04
2.21853e+01  1.75554e-02  2.10612e-02  2.69804e-04
2.22965e+01  1.76434e-02  2.11667e-02  2.71003e-04
2.24083e+01  1.77319e-02  2.12727e-02  2.72207e-04
2.25206e+01  1.78207e-02  2.13792e-02  2.73416e-04
2.26335e+01  1.79101e-02  2.14863e-02  2.74629e-04
2.27470e+01  1.79999e-02  2.15939e-02  2.75846e-04
2.28610e+01  1.80901e-02  2.17021e-02  2.77068e-04
2.29756e+01  1.81808e-02  2.18108e-02  2.78295e-04
2.30907e+01  1.82719e-02  2.19200e-02  2.79526e-04
2.32065e+01  1.83635e-02  2.20298e-02  2.80762e-04
2.33228e+01  1.84556e-02  2.21401e-02  2.82002e-04
2.34397e+01  1.85481e-02  2.22510e-02  2.83247e-04
2.35572e+01  1.86411e-02  2.23624e-02  2.84496e-04
2.36753e+01  1.87345e-02  2.24744e-02  2.85750e-04
2.37940e+01  1.88284e-02  2.25870e-02  2.87009e-04
2.39132e+01  1.89228e-02  2.27001e-02  2.88272e-04
2.40331e+01  1.90177e-02  2.28138e-02  2.89539e-04
2.41536e+01  1.91130e-02  2.29281e-02  2.90812e-04
2.42746e+01  1.92088e-02  2.30429e-02  2.92089e-04
2.43963e+01  1.93051e-02  2.31583e-02  2.93370e-04
2.45186e+01  1.94019e-02  2.32743e-02  2.94657e-04
2.46415e+01  1.94991e-02  2.33908e-02  2.95947e-04
2.47650e+01  1.95969e-02  2.35080e-02  2.97243e-04
2.48891e+01  1.96951e-02  2.36257e-02  2.98543e-04
2.50139e+01  1.97939e-02  2.37440e-02  2.99848e-04
2.51393e+01  1.98931e-02  2.38629e-02  3.01157e-04
2.52653e+01  1.99928e-02  2.39824e-02  3.02472e-04
2.53919e+01  2.00930e-02  2.41026e-02  3.03790e-04
2.55192e+01  2.01938e-02  2.42233e-02  3.05114e-04
2.56471e+01  2.02950e-02  2.43446e-02  3.06442e-04
2.57757e+01  2.03967e-02  2.44665e-02  3.07775e-04
2.59049e+01  2.04990e-02  2.45890e-02  3.09112e-04
2.60347e+01  2.06017e-02  2.47122e-02  3.10454e-04
2.61652e+01  2.07050e-02  2.48359e-02  3.11801e-04
2.62964e+01  2.08088e-02  2.49603e-02  3.13153e-04
2.64282e+01  2.09131e-02  2.50853e-02  3.14509e-04
2.65607e+01  2.10180e-02  2.52109e-02  3.15870e-04
2.66938e+01  2.11233e-02  2.53372e-02  3.17236e-04
2.68276e+01  2.12292e-02  2.54641e-02  3.18606e-04
2.69621e+01  2.13356e-02  2.55916e-02  3.19981e-04
2.70972e+01  2.14426e-02  2.57197e-02  3.21361e-04
2.72331e+01  2.15501e-02  2.58485e-02  3.22746e-04
2.73696e+01  2.16581e-02  2.59780e-02  3.24135e-04
2.75068e+01  2.17667e-02  2.61081e-02  3.25529e-04
2.76446e+01  2.18758e-02  2.62388e-02  3.26927e-04
2.77832e+01  2.19855e-02  2.63702e-02  3.28331e-04
2.79225e+01  2.20957e-02  2.65023e-02  3.29739e-04
2.80624e+01  2.22065e-02  2.66350e-02  3.31152e-04
2.82031e+01  2.23178e-02  2.67684e-02  3.32570e-04
2.83445e+01  2.24297e-02  2.69024e-02  3.33992e-04
2.84865e+01  2.25421e-02  2.70371e-02  3.35419e-04
2.86293e+01  2.26551e-02  2.71725e-02  3.36851e-04
2.87728e+01  2.27687e-02  2.73086e-02  3.38287e-04
2.89171e+01  2.28828e-02  2.74454e-02  3.39729e-04
2.90620e+01  2.29975e-02  2.75828e-02  3.41175e-04
2.92077e+01  2.31128e-02  2.77209e-02  3.42625e-04
2.93541e+01  2.32287e-02  2.78597e-02  3.44081e-04
2.95012e+01  2.33451e-02  2.79993e-02  3.45541e-04
2.96491e+01  2.34622e-02  2.81395e-02  3.47006e-04
2.97977e+01  2.35798e-02  2.82804e-02  3.48476e-04
2.99471e+01  2.36980e-02  2.84220e-02  3.49950e-04
3.00972e+01  2.38168e-02  2.85643e-02  3.51429e-04
3.02481e+01  2.39362e-02  2.87074e-02  3.52913e-04
3.03997e+01  2.40562e-02  2.88511e-02  3.54402e-04
3.05520e+01  2.41768e-02  2.89956e-02  3.55895e-04
3.07052e+01  2.42980e-02  2.91408e-02  3.57393e-04
3.08591e+01  2.44198e-02  2.92867e-02  3.58896e-04
3.10138e+01  2.45422e-02  2.94334e-02  3.60403e-04
3.11692e+01  2.46652e-02  2.95808e-02  3.61915e-04
3.13255e+01  2.47889e-02  2.97289e-02  3.63432e-04
3.14825e+01  2.49132e-02  2.98778e-02  3.64954e-04
3.16403e+01  2.50380e-02  3.00274e-02  3.66480e-04
3.17989e+01  2.51636e-02  3.01777e-02  3.68011e-04
3.19583e+01  2.52897e-02  3.03288e-02  3.69547e-04
3.21185e+01  2.54165e-02  3.04807e-02  3.71087e-04
3.22795e+01  2.55439e-02  3.06333e-02  3.72632e-04
3.24413e+01  2.56720e-02  3.07867e-02  3.74182e-04
3.26039e+01  2.58007e-02  3.09409e-02  3.75736e-04
3.27673e+01  2.59300e-02  3.10958e-02  3.77295e-04
3.29316e+01  2.60600e-02  3.12516e-02  3.78859e-04
3.30966e+01  2.61906e-02  3.14080e-02  3.80427e-04
3.32625e+01  2.63219e-02  3.15653e-02  3.82000e-04
3.34293e+01  2.64539e-02  3.17234e-02  3.83577e-04
3.35968e+01  2.65865e-02  3.18822e-02  3.85159e-04
3.37652e+01  2.67198e-02  3.20419e-02  3.86746e-04
3.39345e+01  2.68537e-02  3.22023e-02  3.88338e-04
3.41046e+01  2.69884e-02  3.23636e-02  3.89934e-04
3.42755e+01  2.71237e-02  3.25256e-02  3.91534e-04
3.44473e+01  2.72596e-02  3.26885e-02  3.93139e-04
3.46200e+01  2.73963e-02  3.28522e-02  3.94749e-04
3.47935e+01  2.75336e-02  3.30167e-02  3.96364e-04
3.49679e+01  2.76717e-02  3.31820e-02  3.97982e-04
3.51432e+01  2.78104e-02  3.33482e-02  3.99606e-04
3.53194e+01  2.79498e-02  3.35152e-02  4.01234e-04
3.54964e+01  2.80899e-02  3.36830e-02  4.02866e-04
3.56743e+01  2.82307e-02  3.38517e-02  4.04503e-04
3.58532e+01  2.83723e-02  3.40212e-02  4.06145e-04
3.60329e+01  2.85145e-02  3.41915e-02  4.07790e-04
3.62135e+01  2.86574e-02  3.43628e-02  4.09441e-04
3.63950e+01  2.88011e-02  3.45348e-02  4.11096e-04
3.65774e+01  2.89455e-02  3.47078e-02  4.12755e-04
3.67608e+01  2.90906e-02  3.48815e-02  4.14419e-04
3.69451e+01  2.92364e-02  3.50562e-02  4.16087e-04
3.71302e+01  2.93830e-02  3.52318e-02  4.17759e-04
3.73164e+01  2.95303e-02  3.54082e-02  4.19436e-04
3.75034e+01  2.96784e-02  3.55855e-02  4.21117e-04
3.76914e+01  2.98271e-02  3.57637e-02  4.22803e-04
3.78803e+01  2.99767e-02  3.59428e-02  4.24493e-04
3.80702e+01  3.01269e-02  3.61227e-02  4.26187e-04
3.82610e+01  3.02780e-02  3.63036e-02  4.27886e-04
3.84528e+01  3.04298e-02  3.64854e-02  4.29589e-04
3.86456e+01  3.05823e-02  3.66681e-02  4.31296e-04
3.88393e+01  3.07356e-02  3.68517e-02  4.33007e-04
3.90339e+01  3.08897e-02  3.70363e-02  4.34723e-04
3.92296e+01  3.10446e-02  3.72217e-02  4.36442e-04
3.94262e+01  3.12002e-02  3.74081e-02  4.38166e-04
3.96239e+01  3.13566e-02  3.75954e-02  4.39894e-04
3.98225e+01  3.15138e-02  3.77837e-02  4.41627e-04
4.00221e+01  3.16718e-02  3.79729e-02  4.43363e-04
4.02227e+01  3.18306e-02  3.81630e-02  4.45104e-04
4.04243e+01  3.19902e-02  3.83541e-02  4.46848e-04
4.06270e+01  3.21505e-02  3.85462e-02  4.48597e-04
4.08306e+01  3.23117e-02  3.87392e-02  4.50349e-04
4.10353e+01  3.24737e-02  3.89332e-02  4.52106e-04
4.12410e+01  3.26365e-02  3.91282e-02  4.53867e-04
4.14477e+01  3.28001e-02  3.93241e-02  4.55631e-04
4.16554e+01  3.29646e-02  3.95210e-02  4.57400e-04
4.18642e+01  3.31298e-02  3.97190e-02  4.59172e-04
4.20741e+01  3.32959e-02  3.99179e-02  4.60948e-04
4.22850e+01  3.34628e-02  4.01177e-02  4.62729e-04
4.24969e+01  3.36306e-02  4.03186e-02  4.64512e-04
4.27099e+01  3.37992e-02  4.05205e-02  4.66300e-04
4.29240e+01  3.39686e-02  4.07235e-02  4.68092e-04
4.31392e+01  3.41389e-02  4.09274e-02  4.69887e-04
4.33554e+01  3.43101e-02  4.11324e-02  4.71686e-04
4.35727e+01  3.44821e-02  4.13383e-02  4.73489e-04
4.37912e+01  3.46550e-02  4.15454e-02  4.75295e-04
4.40107e+01  3.48287e-02  4.17534e-02  4.77105e-04
4.42313e+01  3.50033e-02  4.19625e-02  4.78918e-04
4.44530e+01  3.51788e-02  4.21726e-02  4.80735e-04
4.46758e+01  3.53552e-02  4.23838e-02  4.82556e-04
4.48997e+01  3.55324e-02  4.25961e-02  4.84380e-04
4.51248e+01  3.57105e-02  4.28094e-02  4.86208e-04
4.53510e+01  3.58896e-02  4.30238e-02  4.88039e-04
4.55783e+01  3.60695e-02  4.32393e-02  4.89873e-04
4.58068e+01  3.62503e-02  4.34558e-02  4.91710e-04
4.60364e+01  3.64321e-02  4.36734e-02  4.93551e-04
4.62671e+01  3.66147e-02  4.38922e-02  4.95396e-04
4.64990e+01  3.67983e-02  4.41120e-02  4.97243e-04
4.67321e+01  3.69828e-02  4.43329e-02  4.99094e-04
4.69664e+01  3.71682e-02  4.45549e-02  5.00948e-04
4.72018e+01  3.73545e-02  4.47781e-02  5.02804e-04
4.74384e+01  3.75418e-02  4.50023e-02  5.04664e-04
4.76762e+01  3.77300e-02  4.52277e-02  5.06527e-04
4.79152e+01  3.79191e-02  4.54542e-02  5.08393e-04
4.81553e+01  3.81092e-02  4.56819e-02  5.10262e-04
4.83967e+01  3.83003e-02  4.59107e-02  5.12134e-04
4.86393e+01  3.84923e-02  4.61406e-02  5.14009e-04
4.88831e+01  3.86853e-02  4.63717e-02  5.15886e-04
4.91281e+01  3.88792e-02  4.66040e-02  5.17767e-04
4.93744e+01  3.90742e-02  4.68374e-02  5.19650e-04
4.96219e+01  3.92701e-02  4.70720e-02  5.21535e-04
4.98706e+01  3.94669e-02  4.73078e-02  5.23424e-04
5.01206e+01  3.96648e-02  4.75447e-02  5.25315e-04
5.03718e+01  3.98637e-02  4.77829e-02  5.27208e-04
5.06243e+01  4.00635e-02  4.80222e-02  5.29104e-04
5.08781e+01  4.02644e-02  4.82627e-02  5.31002e-04
5.11331e+01  4.04662e-02  4.85045e-02  5.32903e-04
5.13894e+01  4.06691e-02  4.87474e-02  5.34806e-04
5.16470e+01  4.08730e-02  4.89916e-02  5.36711e-04
5.19059e+01  4.10779e-02  4.92370e-02  5.38619e-04
5.21660e+01  4.12839e-02  4.94837e-02  5.40529e-04
5.24275e+01  4.14908e-02  4.97315e-02  5.42441e-04
5.26903e+01  4.16988e-02  4.99807e-02  5.44354e-04
5.29544e+01  4.19079e-02  5.02310e-02  5.46270e-04
5.32199e+01  4.21180e-02  5.04827e-02  5.48188e-04
5.34866e+01  4.23292e-02  5.07356e-02  5.50108e-04
5.37547e+01  4.25414e-02  5.09897e-02  5.52029e-04
5.40242e+01  4.27547e-02  5.12452e-02  5.53953e-04
5.42950e+01  4.29690e-02  5.15019e-02  5.55878e-04
5.45671e+01  4.31844e-02  5.17599e-02  5.57804e-04
5.48407e+01  4.34010e-02  5.20192e-02  5.59733e-04
5.51155e+01  4.36185e-02  5.22798e-02  5.61662e-04
5.53918e+01  4.38372e-02  5.25418e-02  5.63594e-04
5.56695e+01  4.40570e-02  5.28050e-02  5.65526e-04
5.59485e+01  4.42779e-02  5.30696e-02  5.67460e-04
5.62289e+01  4.44999e-02  5.33355e-02  5.69395e-04
5.65108e+01  4.47230e-02  5.36027e-02  5.71332e-04
5.67941e+01  4.49472e-02  5.38713e-02  5.73269e-04
5.70787e+01  4.51726e-02  5.41412e-02  5.75208e-04
5.73649e+01  4.53990e-02  5.44125e-02  5.77147e-04
5.76524e+01  4.56266e-02  5.46851e-02  5.79088e-04
5.79414e+01  4.58554e-02  5.49591e-02  5.81029e-04
5.82318e+01  4.60853e-02  5.52345e-02  5.82971e-04
5.85237e+01  4.63163e-02  5.55113e-02  5.84914e-04
5.88170e+01  4.65486e-02  5.57895e-02  5.86857e-04
5.91119e+01  4.67819e-02  5.60690e-02  5.88801e-04
5.94082e+01  4.70165e-02  5.63500e-02  5.90745e-04
5.97060e+01  4.72522e-02  5.66324e-02  5.92690e-04
6.00052e+01  4.74891e-02  5.69162e-02  5.94635e-04
6.03060e+01  4.77272e-02  5.72015e-02  5.96580e-04
6.06083e+01  4.79665e-02  5.74881e-02  5.98526e-04
6.09121e+01  4.82070e-02  5.77763e-02  6.00471e-04
6.12174e+01  4.84487e-02  5.80658e-02  6.02417e-04
6.15243e+01  4.86916e-02  5.83569e-02  6.04362e-04
6.18327e+01  4.89357e-02  5.86494e-02  6.06307e-04
6.21426e+01  4.91810e-02  5.89433e-02  6.08252e-04
6.24541e+01  4.94276e-02  5.92388e-02  6.10197e-04
6.27671e+01  4.96754e-02  5.95357e-02  6.12141e-04
6.30818e+01  4.99245e-02  5.98342e-02  6.14085e-04
6.33980e+01  5.01748e-02  6.01341e-02  6.16028e-04
6.37157e+01  5.04264e-02  6.04356e-02  6.17970e-04
6.40351e+01  5.06792e-02  6.07385e-02  6.19911e-04
6.43561e+01  5.09333e-02  6.10430e-02  6.21852e-04
6.46787e+01  5.11886e-02  6.13491e-02  6.23792e-04
6.50029e+01  5.14453e-02  6.16567e-02  6.25730e-04
6.53287e+01  5.17032e-02  6.19658e-02  6.27668e-04
6.56562e+01  5.19624e-02  6.22765e-02  6.29604e-04
6.59853e+01  5.22230e-02  6.25887e-02  6.31539e-04
6.63160e+01  5.24848e-02  6.29026e-02  6.33472e-04
6.66484e+01  5.27479e-02  6.32180e-02  6.35404e-04
6.69825e+01  5.30124e-02  6.35350e-02  6.37334e-04
6.73183e+01  5.32782e-02  6.38536e-02  6.39262e-04
6.76557e+01  5.35453e-02  6.41738e-02  6.41189e-04
6.79948e+01  5.38138e-02  6.44956e-02  6.43113e-04
6.83357e+01  5.40836e-02  6.48191e-02  6.45036e-04
6.86782e+01  5.43548e-02  6.51442e-02  6.46956e-04
6.90224e+01  5.46273e-02  6.54709e-02  6.48874e-04
6.93684e+01  5.49012e-02  6.57993e-02  6.50790e-04
6.97161e+01  5.51764e-02  6.61294e-02  6.52703e-04
7.00656e+01  5.54531e-02  6.64611e-02  6.54613e-04
7.04168e+01  5.57311e-02  6.67945e-02  6.56521e-04
7.07698e+01  5.60105e-02  6.71295e-02  6.58426e-04
7.11245e+01  5.62914e-02  6.74663e-02  6.60328e-04
7.14810e+01  5.65736e-02  6.78048e-02  6.62227e-04
7.18393e+01  5.68573e-02  6.81450e-02  6.64123e-04
7.21994e+01  5.71423e-02  6.84869e-02  6.66016e-04
7.25613e+01  5.74288e-02  6.88305e-02  6.67905e-04
7.29250e+01  5.77168e-02  6.91759e-02  6.69790e-04
7.32906e+01  5.80062e-02  6.95230e-02  6.71672e-04
7.36579e+01  5.82970e-02  6.98719e-02  6.73550e-04
7.40271e+01  5.85893e-02  7.02226e-02  6.75425e-04
7.43982e+01  5.88830e-02  7.05750e-02  6.77295e-04
7.47711e+01  5.91783e-02  7.09292e-02  6.79161e-04
7.51459e+01  5.94750e-02  7.12852e-02  6.81023e-04
7.55226e+01  5.97732e-02  7.16431e-02  6.82880e-04
7.59011e+01  6.00729e-02  7.20027e-02  6.84733e-04
7.62816e+01  6.03741e-02  7.23641e-02  6.86582e-04
7.66640e+01  6.06768e-02  7.27274e-02  6.88425e-04
7.70482e+01  6.09810e-02  7.30926e-02  6.90264e-04
7.74344e+01  6.12868e-02  7.34595e-02  6.92097e-04
7.78226e+01  6.15941e-02  7.38284e-02  6.93926e-04
7.82127e+01  6.19029e-02  7.41991e-02  6.95749e-04
7.86047e+01  6.22133e-02  7.45717e-02  6.97567e-04
7.89987e+01  6.25252e-02  7.49462e-02  6.99379e-04
7.93947e+01  6.28387e-02  7.53226e-02  7.01185e-04
7.97927e+01  6.31538e-02  7.57009e-02  7.02986e-04
8.01926e+01  6.34704e-02  7.60812e-02  7.04781e-04
8.05946e+01  6.37887e-02  7.64633e-02  7.06569e-04
8.09986e+01  6.41085e-02  7.68474e-02  7.08351e-04
8.14046e+01  6.44300e-02  7.72335e-02  7.10127e-04
8.18126e+01  6.47530e-02  7.76215e-02  7.11896e-04
8.22227e+01  6.50777e-02  7.80116e-02  7.13659e-04
8.26349e+01  6.54040e-02  7.84036e-02  7.15415e-04
8.30491e+01  6.57319e-02  7.87975e-02  7.17163e-04
8.34654e+01  6.60615e-02  7.91935e-02  7.18905e-04
8.38837e+01  6.63928e-02  7.95916e-02  7.20639e-04
8.43042e+01  6.67257e-02  7.99916e-02  7.22366e-04
8.47268e+01  6.70602e-02  8.03937e-02  7.24085e-04
8.51515e+01  6.73965e-02  8.07978e-02  7.25797e-04
8.55783e+01  6.77344e-02  8.12040e-02  7.27500e-04
8.60073e+01  6.80740e-02  8.16123e-02  7.29196e-04
8.64384e+01  6.84154e-02  8.20227e-02  7.30883e-04
8.68717e+01  6.87584e-02  8.24351e-02  7.32562e-04
8.73071e+01  6.91032e-02  8.28497e-02  7.34232e-04
8.77447e+01  6.94497e-02  8.32664e-02  7.35894e-04
8.81845e+01  6.97979e-02  8.36852e-02  7.37547e-04
8.86266e+01  7.01479e-02  8.41061e-02  7.39191e-04
8.90708e+01  7.04996e-02  8.45292e-02  7.40825e-04
8.95173e+01  7.08531e-02  8.49545e-02  7.42451e-04
8.99660e+01  7.12084e-02  8.53820e-02  7.44066e-04
9.04169e+01  7.15654e-02  8.58116e-02  7.45673e-04
9.08702e+01  7.19243e-02  8.62435e-02  7.47269e-04
9.13257e+01  7.22849e-02  8.66775e-02  7.48855e-04
9.17834e+01  7.26474e-02  8.71138e-02  7.50431e-04
9.22435e+01  7.30116e-02  8.75523e-02  7.51997e-04
9.27059e+01  7.33777e-02  8.79931e-02  7.53552e-04
9.31706e+01  7.37457e-02  8.84361e-02  7.55097e-04
9.36376e+01  7.41154e-02  8.88814e-02  7.56631e-04
9.41069e+01  7.44871e-02  8.93290e-02  7.58154e-04
9.45786e+01  7.48606e-02  8.97789e-02  7.59665e-04
9.50527e+01  7.52359e-02  9.02312e-02  7.61165e-04
9.55292e+01  7.56132e-02  9.06857e-02  7.62654e-04
9.60080e+01  7.59923e-02  9.11426e-02  7.64131e-04
9.64893e+01  7.63734e-02  9.16018e-02  7.65596e-04
9.69729e+01  7.67563e-02  9.20634e-02  7.67048e-04
9.74590e+01  7.71412e-02  9.25274e-02  7.68489e-04
9.79475e+01  7.75280e-02  9.29938e-02  7.69917e-04
9.84385e+01  7.79168e-02  9.34625e-02  7.71333e-04
9.89319e+01  7.83075e-02  9.39337e-02  7.72735e-04
9.94278e+01  7.87002e-02  9.44073e-02  7.74125e-04
9.99262e+01  7.90948e-02  9.48834e-02  7.75502e-04
1.00427e+02  7.94914e-02  9.53620e-02  7.76865e-04
1.00930e+02  7.98900e-02  9.58430e-02  7.78214e-04
1.01436e+02  8.02906e-02  9.63265e-02  7.79550e-04
1.01945e+02  8.06932e-02  9.68125e-02  7.80872e-04
1.02456e+02  8.10978e-02  9.73010e-02  7.82180e-04
1.02969e+02  8.15045e-02  9.77920e-02  7.83473e-04
1.03486e+02  8.19132e-02  9.82856e-02  7.84752e-04
1.04004e+02  8.23239e-02  9.87818e-02  7.86016e-04
1.04526e+02  8.27367e-02  9.92805e-02  7.87266e-04
1.05050e+02  8.31516e-02  9.97819e-02  7.88500e-04
1.05576e+02  8.35686e-02  1.00286e-01  7.89719e-04
1.06105e+02  8.39876e-02  1.00792e-01  7.90922e-04
1.06637e+02  8.44088e-02  1.01302e-01  7.92110e-04
1.07172e+02  8.48321e-02  1.01813e-01  7.93282e-04
1.07709e+02  8.52575e-02  1.02328e-01  7.94438e-04
1.08249e+02  8.56850e-02  1.02845e-01  7.95578e-04
1.08791e+02  8.61146e-02  1.03365e-01  7.96701e-04
1.09337e+02  8.65465e-02  1.03887e-01  7.97807e-04
1.09885e+02  8.69805e-02  1.04413e-01  7.98897e-04
1.10436e+02  8.74166e-02  1.04941e-01  7.99970e-04
1.10989e+02  8.78550e-02  1.05472e-01  8.01025e-04
1.11545e+02  8.82955e-02  1.06005e-01  8.02063e-04
1.12105e+02  8.87383e-02  1.06542e-01  8.03083e-04
1.12666e+02  8.91833e-02  1.07081e-01  8.04086e-04
1.13231e+02  8.96305e-02  1.07623e-01  8.05070e-04
1.13799e+02  9.00800e-02  1.08168e-01  8.06036e-04
1.14369e+02  9.05317e-02  1.08716e-01  8.06983e-04
1.14942e+02  9.09857e-02  1.09266e-01  8.07912e-04
1.15519e+02  9.14419e-02  1.09820e-01  8.08822e-04
1.16098e+02  9.19005e-02  1.10376e-01  8.09713e-04
1.16680e+02  9.23613e-02  1.10935e-01  8.10585e-04
1.17264e+02  9.28245e-02  1.11498e-01  8.11437e-04
1.17852e+02  9.32900e-02  1.12063e-01  8.12269e-04
1.18443e+02  9.37578e-02  1.12631e-01  8.13081e-04
1.19037e+02  9.42280e-02  1.13203e-01  8.13873e-04
1.19633e+02  9.47005e-02  1.13777e-01  8.14645e-04
1.20233e+02  9.51754e-02  1.14354e-01  8.15397e-04
1.20836e+02  9.56527e-02  1.14934e-01  8.16127e-04
1.21441e+02  9.61324e-02  1.15518e-01  8.16837e-04
1.22050e+02  9.66144e-02  1.16104e-01  8.17525e-04
1.22662e+02  9.70990e-02  1.16694e-01  8.18192e-04
1.23277e+02  9.75859e-02  1.17287e-01  8.18837e-04
1.23895e+02  9.80753e-02  1.17883e-01  8.19460e-04
1.24516e+02  9.85671e-02  1.18482e-01  8.20062e-04
1.25140e+02  9.90614e-02  1.19084e-01  8.20641e-04
1.25767e+02  9.95582e-02  1.19690e-01  8.21197e-04
1.26398e+02  1.00057e-01  1.20298e-01  8.21731e-04
1.27031e+02  1.00559e-01  1.20910e-01  8.22242e-04
1.27668e+02  1.01063e-01  1.21526e-01  8.22729e-04
1.28308e+02  1.01570e-01  1.22144e-01  8.23194e-04
1.28951e+02  1.02080e-01  1.22766e-01  8.23634e-04
1.29597e+02  1.02592e-01  1.23391e-01  8.24051e-04
1.30247e+02  1.03106e-01  1.24020e-01  8.24444e-04
1.30900e+02  1.03623e-01  1.24652e-01  8.24813e-04
1.31556e+02  1.04143e-01  1.25287e-01  8.25157e-04
1.32215e+02  1.04665e-01  1.25926e-01  8.25476e-04
1.32878e+02  1.05190e-01  1.26568e-01  8.25771e-04
1.33544e+02  1.05718e-01  1.27214e-01  8.26040e-04
1.34213e+02  1.06248e-01  1.27863e-01  8.26284e-04
1.34886e+02  1.06781e-01  1.28516e-01  8.26502e-04
1.35562e+02  1.07316e-01  1.29172e-01  8.26694e-04
1.36242e+02  1.07854e-01  1.29832e-01  8.26861e-04
1.36925e+02  1.08395e-01  1.30495e-01  8.27001e-04
1.37611e+02  1.08939e-01  1.31162e-01  8.27114e-04
1.38301e+02  1.09485e-01  1.31832e-01  8.27201e-04
1.38994e+02  1.10034e-01  1.32507e-01  8.27261e-04
1.39691e+02  1.10586e-01  1.33185e-01  8.27293e-04
1.40391e+02  1.11141e-01  1.33866e-01  8.27298e-04
1.41095e+02  1.11698e-01  1.34551e-01  8.27276e-04
1.41802e+02  1.12258e-01  1.35241e-01  8.27225e-04
1.42513e+02  1.12821e-01  1.35933e-01  8.27147e-04
1.43227e+02  1.13387e-01  1.36630e-01  8.27039e-04
1.43945e+02  1.13956e-01  1.37331e-01  8.26904e-04
1.44667e+02  1.14527e-01  1.38035e-01  8.26739e-04
1.45392e+02  1.15101e-01  1.38743e-01  8.26545e-04
1.46121e+02  1.15679e-01  1.39455e-01  8.26322e-04
1.46853e+02  1.16259e-01  1.40171e-01  8.26069e-04
1.47589e+02  1.16842e-01  1.40891e-01  8.25787e-04
1.48329e+02  1.17428e-01  1.41615e-01  8.25474e-04
1.49072e+02  1.18017e-01  1.42343e-01  8.25131e-04
1.49820e+02  1.18609e-01  1.43076e-01  8.24757e-04
1.50571e+02  1.19204e-01  1.43812e-01  8.24353e-04
1.51325e+02  1.19801e-01  1.44552e-01  8.23917e-04
1.52084e+02  1.20402e-01  1.45296e-01  8.23451e-04
1.52846e+02  1.21006e-01  1.46045e-01  8.22952e-04
1.53612e+02  1.21613e-01  1.46798e-01  8.22422e-04
1.54382e+02  1.22223e-01  1.47555e-01  8.21859e-04
1.55156e+02  1.22836e-01  1.48316e-01  8.21265e-04
1.55934e+02  1.23452e-01  1.49082e-01  8.20637e-04
1.56715e+02  1.24071e-01  1.49851e-01  8.19977e-04
1.57501e+02  1.24694e-01  1.50626e-01  8.19284e-04
1.58290e+02  1.25319e-01  1.51404e-01  8.18557e-04
1.59084e+02  1.25947e-01  1.52187e-01  8.17796e-04
1.59881e+02  1.26579e-01  1.52975e-01  8.17002e-04
1.60683e+02  1.27214e-01  1.53767e-01  8.16174e-04
1.61488e+02  1.27852e-01  1.54563e-01  8.15311e-04
1.62298e+02  1.28493e-01  1.55364e-01  8.14413e-04
1.63111e+02  1.29138e-01  1.56169e-01  8.13481e-04
1.63929e+02  1.29785e-01  1.56980e-01  8.12513e-04
1.64750e+02  1.30436e-01  1.57795e-01  8.11510e-04
1.65576e+02  1.31091e-01  1.58614e-01  8.10471e-04
1.66406e+02  1.31748e-01  1.59438e-01  8.09396e-04
1.67240e+02  1.32409e-01  1.60267e-01  8.08284e-04
1.68079e+02  1.33073e-01  1.61101e-01  8.07136e-04
1.68921e+02  1.33740e-01  1.61940e-01  8.05952e-04
1.69768e+02  1.34411e-01  1.62783e-01  8.04730e-04
1.70619e+02  1.35085e-01  1.63632e-01  8.03471e-04
1.71474e+02  1.35763e-01  1.64485e-01  8.02174e-04
1.72334e+02  1.36444e-01  1.65344e-01  8.00840e-04
1.73197e+02  1.37128e-01  1.66207e-01  7.99467e-04
1.74066e+02  1.37816e-01  1.67075e-01  7.98056e-04
1.74938e+02  1.38507e-01  1.67949e-01  7.96607e-04
1.75815e+02  1.39202e-01  1.68828e-01  7.95118e-04
1.76696e+02  1.39900e-01  1.69712e-01  7.93591e-04
1.77582e+02  1.40602e-01  1.70601e-01  7.92024e-04
1.78472e+02  1.41307e-01  1.71496e-01  7.90418e-04
1.79367e+02  1.42016e-01  1.72395e-01  7.88772e-04
1.80266e+02  1.42728e-01  1.73301e-01  7.87086e-04
1.81169e+02  1.43444e-01  1.74211e-01  7.85360e-04
1.82077e+02  1.44164e-01  1.75127e-01  7.83593e-04
1.82990e+02  1.44887e-01  1.76049e-01  7.81786e-04
1.83907e+02  1.45614e-01  1.76976e-01  7.79938e-04
1.84829e+02  1.46344e-01  1.77909e-01  7.78049e-04
1.85756e+02  1.47078e-01  1.78848e-01  7.76120e-04
1.86687e+02  1.47816e-01  1.79792e-01  7.74149e-04
1.87622e+02  1.48557e-01  1.80742e-01  7.72136e-04
1.88563e+02  1.49302e-01  1.81698e-01  7.70083e-04
1.89508e+02  1.50051e-01  1.82659e-01  7.67988e-04
1.90458e+02  1.50804e-01  1.83627e-01  7.65852e-04
1.91413e+02  1.51560e-01  1.84600e-01  7.63674e-04
1.92372e+02  1.52321e-01  1.85580e-01  7.61454e-04
1.93336e+02  1.53085e-01  1.86566e-01  7.59194e-04
1.94306e+02  1.53853e-01  1.87557e-01  7.56892e-04
1.95279e+02  1.54624e-01  1.88555e-01  7.54548e-04
1.96258e+02  1.55400e-01  1.89560e-01  7.52164e-04
1.97242e+02  1.56179e-01  1.90570e-01  7.49739e-04
1.98231e+02  1.56963e-01  1.91587e-01  7.47273e-04
1.99224e+02  1.57750e-01  1.92611e-01  7.44767e-04
2.00223e+02  1.58542e-01  1.93641e-01  7.42221e-04
2.01227e+02  1.59337e-01  1.94677e-01  7.39635e-04
2.02235e+02  1.60136e-01  1.95721e-01  7.37011e-04
2.03249e+02  1.60939e-01  1.96770e-01  7.34348e-04
2.04268e+02  1.61747e-01  1.97827e-01  7.31647e-04
2.05292e+02  1.62558e-01  1.98891e-01  7.28909e-04
2.06321e+02  1.63374e-01  1.99961e-01  7.26135e-04
2.07355e+02  1.64193e-01  2.01038e-01  7.23325e-04
2.08394e+02  1.65017e-01  2.02123e-01  7.20481e-04
2.09439e+02  1.65845e-01  2.03214e-01  7.17604e-04
2.10489e+02  1.66677e-01  2.04313e-01  7.14695e-04
2.11544e+02  1.67513e-01  2.05419e-01  7.11756e-04
2.12604e+02  1.68353e-01  2.06532e-01  7.08787e-04
2.13670e+02  1.69197e-01  2.07653e-01  7.05792e-04
2.14741e+02  1.70046e-01  2.08782e-01  7.02771e-04
2.15817e+02  1.70899e-01  2.09917e-01  6.99727e-04
2.16899e+02  1.71757e-01  2.11061e-01  6.96662e-04
2.17986e+02  1.72618e-01  2.12212e-01  6.93578e-04
2.19079e+02  1.73484e-01  2.13372e-01  6.90479e-04
2.20177e+02  1.74355e-01  2.14539e-01  6.87367e-04
2.21281e+02  1.75229e-01  2.15714e-01  6.84245e-04
2.22390e+02  1.76108e-01  2.16897e-01  6.81117e-04
2.23505e+02  1.76992e-01  2.18089e-01  6.77987e-04
2.24625e+02  1.77880e-01  2.19289e-01  6.74859e-04
2.25751e+02  1.78772e-01  2.20497e-01  6.71738e-04
2.26882e+02  1.79669e-01  2.21714e-01  6.68627e-04
2.28020e+02  1.80570e-01  2.22940e-01  6.65533e-04
2.29163e+02  1.81476e-01  2.24174e-01  6.62461e-04
2.30311e+02  1.82387e-01  2.25417e-01  6.59418e-04
2.31466e+02  1.83302e-01  2.26669e-01  6.56409e-04
2.32626e+02  1.84221e-01  2.27930e-01  6.53443e-04
2.33792e+02  1.85145e-01  2.29200e-01  6.50526e-04
2.34964e+02  1.86074e-01  2.30479e-01  6.47666e-04
2.36142e+02  1.87008e-01  2.31768e-01  6.44874e-04
2.37325e+02  1.87946e-01  2.33067e-01  6.42158e-04
2.38515e+02  1.88889e-01  2.34375e-01  6.39527e-04
2.39710e+02  1.89836e-01  2.35693e-01  6.36994e-04
2.40912e+02  1.90789e-01  2.37021e-01  6.34569e-04
2.42120e+02  1.91746e-01  2.38359e-01  6.32266e-04
2.43333e+02  1.92708e-01  2.39707e-01  6.30095e-04
2.44553e+02  1.93675e-01  2.41065e-01  6.28073e-04
2.45779e+02  1.94647e-01  2.42434e-01  6.26213e-04
2.47011e+02  1.95623e-01  2.43814e-01  6.24531e-04
2.48249e+02  1.96605e-01  2.45204e-01  6.23043e-04
2.49493e+02  1.97591e-01  2.46605e-01  6.21767e-04
2.50744e+02  1.98582e-01  2.48018e-01  6.20721e-04
2.52001e+02  1.99579e-01  2.49441e-01  6.19923e-04
2.53264e+02  2.00580e-01  2.50877e-01  6.19395e-04
2.54533e+02  2.01586e-01  2.52323e-01  6.19156e-04
2.55809e+02  2.02598e-01  2.53782e-01  6.19228e-04
2.57091e+02  2.03614e-01  2.55253e-01  6.19634e-04
2.58380e+02  2.04636e-01  2.56735e-01  6.20396e-04
2.59675e+02  2.05663e-01  2.58231e-01  6.21540e-04
2.60977e+02  2.06695e-01  2.59738e-01  6.23088e-04
2.62285e+02  2.07732e-01  2.61259e-01  6.25067e-04
2.63600e+02  2.08774e-01  2.62792e-01  6.27503e-04
2.64921e+02  2.09821e-01  2.64339e-01  6.30420e-04
2.66249e+02  2.10874e-01  2.65900e-01  6.33845e-04
2.67584e+02  2.11932e-01  2.67474e-01  6.37806e-04
2.68925e+02  2.12996e-01  2.69061e-01  6.42329e-04
2.70273e+02  2.14064e-01  2.70664e-01  6.47440e-04
2.71628e+02  2.15138e-01  2.72280e-01  6.53167e-04
2.72989e+02  2.16218e-01  2.73911e-01  6.59537e-04
2.74357e+02  2.17303e-01  2.75558e-01  6.66575e-04
2.75733e+02  2.18393e-01  2.77220e-01  6.74309e-04
2.77115e+02  2.19489e-01  2.78897e-01  6.82765e-04
2.78504e+02  2.20590e-01  2.80590e-01  6.91969e-04
2.79900e+02  2.21697e-01  2.82300e-01  7.01946e-04
2.81303e+02  2.22810e-01  2.84026e-01  7.12724e-04
2.82713e+02  2.23928e-01  2.85769e-01  7.24327e-04
2.84130e+02  2.25051e-01  2.87530e-01  7.36783e-04
2.85554e+02  2.26181e-01  2.89308e-01  7.50117e-04
2.86986e+02  2.27315e-01  2.91105e-01  7.64357e-04
2.88424e+02  2.28456e-01  2.92920e-01  7.79532e-04
2.89870e+02  2.29602e-01  2.94755e-01  7.95672e-04
2.91323e+02  2.30755e-01  2.96610e-01  8.12809e-04
2.92783e+02  2.31913e-01  2.98484e-01  8.30977e-04
2.94251e+02  2.33076e-01  3.00380e-01  8.50215e-04
2.95726e+02  2.34246e-01  3.02297e-01  8.70564e-04
2.97208e+02  2.35421e-01  3.04237e-01  8.92074e-04
2.98698e+02  2.36603e-01  3.06200e-01  9.14797e-04
3.00195e+02  2.37790e-01  3.08187e-01  9.38797e-04
3.01700e+02  2.38983e-01  3.10199e-01  9.64147e-04
3.03212e+02  2.40183e-01  3.12238e-01  9.90931e-04
3.04732e+02  2.41388e-01  3.14303e-01  1.01925e-03
3.06259e+02  2.42599e-01  3.16398e-01  1.04922e-03
3.07794e+02  2.43817e-01  3.18524e-01  1.08099e-03
3.09337e+02  2.45040e-01  3.20682e-01  1.11473e-03
3.10888e+02  2.46270e-01  3.22875e-01  1.15063e-03
3.12446e+02  2.47506e-01  3.25105e-01  1.18893e-03
3.14012e+02  2.48748e-01  3.27376e-01  1.22995e-03
3.15586e+02  2.49996e-01  3.29690e-01  1.27401e-03
3.17168e+02  2.51251e-01  3.32053e-01  1.32156e-03
3.18758e+02  2.52512e-01  3.34469e-01  1.37310e-03
3.20356e+02  2.53779e-01  3.36943e-01  1.42926e-03
3.21961e+02  2.55052e-01  3.39484e-01  1.49081e-03
3.23575e+02  2.56332e-01  3.42100e-01  1.55866e-03
3.25197e+02  2.57619e-01  3.44801e-01  1.63393e-03
3.26827e+02  2.58912e-01  3.47599e-01  1.71799e-03
3.28465e+02  2.60211e-01  3.50509e-01  1.81250e-03
3.30112e+02  2.61517e-01  3.53550e-01  1.91946e-03
3.31767e+02  2.62830e-01  3.56744e-01  2.04135e-03
3.33430e+02  2.64149e-01  3.60117e-01  2.18116e-03
3.35101e+02  2.65474e-01  3.63702e-01  2.34255e-03
3.36781e+02  2.66807e-01  3.67540e-01  2.52995e-03
3.38469e+02  2.68146e-01  3.71679e-01  2.74881e-03
3.40165e+02  2.69492e-01  3.76179e-01  3.00573e-03
3.41870e+02  2.70844e-01  3.81114e-01  3.30875e-03
3.43584e+02  2.72203e-01  3.86574e-01  3.66766e-03
3.45306e+02  2.73570e-01  3.92670e-01  4.09435e-03
3.47037e+02  2.74943e-01  3.99537e-01  4.60325e-03
3.48777e+02  2.76323e-01  4.07345e-01  5.21183e-03
3.50525e+02  2.77710e-01  4.16299e-01  5.94115e-03
3.52282e+02  2.79103e-01  4.26657e-01  6.81657e-03
3.54048e+02  2.80504e-01  4.38733e-01  7.86844e-03
3.55822e+02  2.81912e-01  4.52923e-01  9.13292e-03
3.57606e+02  2.83327e-01  4.69718e-01  1.06530e-02
3.59398e+02  2.84749e-01  4.89736e-01  1.24799e-02
3.61200e+02  2.86178e-01  5.13770e-01  1.46729e-02
3.63010e+02  2.87615e-01  5.42852e-01  1.65095e-02
3.64830e+02  2.89059e-01  5.78387e-01  1.87790e-02
3.66659e+02  2.90509e-01  6.18688e-01  2.08760e-02
3.68497e+02  2.91968e-01  6.69785e-01  2.81882e-02
3.70344e+02  2.93433e-01  7.32115e-01  3.31747e-02
3.72200e+02  2.94906e-01  8.08360e-01  3.88151e-02
3.74066e+02  2.96386e-01  9.01908e-01  4.49719e-02
3.75941e+02  2.97874e-01  1.01665e+00  5.20582e-02
3.77825e+02  2.99369e-01  1.15754e+00  5.94408e-02
3.79719e+02  3.00872e-01  1.33042e+00  6.70307e-02
3.81622e+02  3.02382e-01  1.54210e+00  7.45273e-02
3.83535e+02  3.03900e-01  1.80021e+00  8.43148e-02
3.85458e+02  3.05426e-01  2.11635e+00  8.93130e-02
3.87390e+02  3.06959e-01  2.49356e+00  9.44970e-02
3.89332e+02  3.08500e-01  2.95034e+00  1.00338e-01
3.91283e+02  3.10048e-01  3.49202e+00  9.01276e-02
3.93245e+02  3.11605e-01  4.09979e+00  9.15713e-02
3.95216e+02  3.13169e-01  4.77575e+00  1.10585e-01
3.97197e+02  3.14741e-01  5.55673e+00  2.81648e+00

loop_
_desorp_fugacity
_desorp_pressure
_desorp_amount
_desorp_amount_uncertainty
3.66659e+02  2.90509e-01  2.97914e+01  8.11406e-01
3.68497e+02  2.91968e-01  3.01646e+01  1.30812e-01
3.70344e+02  2.93433e-01  3.04320e+01  1.21591e-01
3.72200e+02  2.94906e-01  3.06366e+01  1.25491e-01
3.74066e+02  2.96386e-01  3.08018e+01  1.27899e-01
3.75941e+02  2.97874e-01  3.09409e+01  1.26906e-01
3.77825e+02  2.99369e-01  3.10617e+01  1.23388e-01
3.79719e+02  3.00872e-01  3.11688e+01  1.18406e-01
3.81622e+02  3.02382e-01  3.12652e+01  1.12731e-01
3.83535e+02  3.03900e-01  3.13527e+01  1.06873e-01
3.85458e+02  3.05426e-01  3.14329e+01  1.01151e-01
3.87390e+02  3.06959e-01  3.15067e+01  9.57567e-02
3.89332e+02  3.08500e-01  3.15751e+01  9.07986e-02
3.91283e+02  3.10048e-01  3.16388e+01  8.63288e-02
3.93245e+02  3.11605e-01  3.16985e+01  8.23632e-02
3.95216e+02  3.13169e-01  3.17548e+01  7.88947e-02
3.97197e+02  3.14741e-01  3.18082e+01  7.59015e-02
3.99188e+02  3.16321e-01  3.18590e+01  7.33543e-02
4.01189e+02  3.17909e-01  3.19078e+01  7.12199e-02
4.03200e+02  3.19505e-01  3.19547e+01  6.94643e-02
4.05221e+02  3.21109e-01  3.20002e+01  6.80546e-02
4.07252e+02  3.22721e-01  3.20444e+01  6.69599e-02
4.09293e+02  3.24341e-01  3.20876e+01  6.61523e-02
4.11345e+02  3.25969e-01  3.21300e+01  6.56065e-02
4.13407e+02  3.27606e-01  3.21718e+01  6.53005e-02
4.15479e+02  3.29251e-01  3.22130e+01  6.52148e-02
4.17561e+02  3.30904e-01  3.22538e+01  6.53323e-02
4.19654e+02  3.32565e-01  3.22943e+01  6.56383e-02
4.21758e+02  3.34234e-01  3.23346e+01  6.61196e-02
4.23872e+02  3.35912e-01  3.23748e+01  6.67648e-02
4.25997e+02  3.37599e-01  3.24150e+01  6.75632e-02
4.28132e+02  3.39294e-01  3.24552e+01  6.85051e-02
4.30278e+02  3.40997e-01  3.24954e+01  6.95813e-02
4.32435e+02  3.42709e-01  3.25358e+01  7.07828e-02
4.34602e+02  3.44430e-01  3.25763e+01  7.21005e-02
4.36781e+02  3.46159e-01  3.26170e+01  7.35253e-02
4.38970e+02  3.47897e-01  3.26579e+01  7.50477e-02
4.41171e+02  3.49644e-01  3.26991e+01  7.66576e-02
4.43382e+02  3.51400e-01  3.27405e+01  7.83447e-02
4.45604e+02  3.53164e-01  3.27822e+01  8.00979e-02
4.47838e+02  3.54937e-01  3.28242e+01  8.19059e-02
4.50083e+02  3.56719e-01  3.28665e+01  8.37565e-02
4.52339e+02  3.58510e-01  3.29092e+01  8.56375e-02
4.54606e+02  3.60311e-01  3.29522e+01  8.75359e-02
4.56885e+02  3.62120e-01  3.29955e+01  8.94390e-02
4.59175e+02  3.63938e-01  3.30392e+01  9.13334e-02
4.61477e+02  3.65765e-01  3.30832e+01  9.32063e-02
4.63790e+02  3.67602e-01  3.31276e+01  9.50446e-02
4.66115e+02  3.69448e-01  3.31724e+01  9.68357e-02
4.68451e+02  3.71303e-01  3.32175e+01  9.85674e-02
4.70799e+02  3.73168e-01  3.32630e+01  1.00228e-01
4.73159e+02  3.75041e-01  3.33089e+01  1.01808e-01
4.75531e+02  3.76925e-01  3.33552e+01  1.03295e-01
4.77914e+02  3.78817e-01  3.34018e+01  1.04682e-01
4.80310e+02  3.80720e-01  3.34488e+01  1.05961e-01
4.82718e+02  3.82631e-01  3.34961e+01  1.07126e-01
4.85137e+02  3.84553e-01  3.35439e+01  1.08171e-01
4.87569e+02  3.86484e-01  3.35920e+01  1.09092e-01
4.90013e+02  3.88425e-01  3.36404e+01  1.09887e-01
4.92469e+02  3.90376e-01  3.36892e+01  1.10556e-01
4.94938e+02  3.92336e-01  3.37384e+01  1.11099e-01
4.97419e+02  3.94306e-01  3.37879e+01  1.11519e-01
4.99912e+02  3.96286e-01  3.38377e+01  1.11819e-01
5.02418e+02  3.98277e-01  3.38879e+01  1.12004e-01
5.04936e+02  4.00277e-01  3.39384e+01  1.12080e-01
5.07467e+02  4.02287e-01  3.39892e+01  1.12055e-01
5.10011e+02  4.04307e-01  3.40404e+01  1.11938e-01
5.12567e+02  4.06338e-01  3.40918e+01  1.11737e-01
5.15136e+02  4.08379e-01  3.41436e+01  1.11464e-01
5.17719e+02  4.10430e-01  3.41956e+01  1.11128e-01
5.20314e+02  4.12491e-01  3.42479e+01  1.10740e-01
5.22922e+02  4.14563e-01  3.43005e+01  1.10313e-01
5.25543e+02  4.16645e-01  3.43534e+01  1.09855e-01
5.28177e+02  4.18738e-01  3.44065e+01  1.09379e-01
5.30825e+02  4.20841e-01  3.44598e+01  1.08894e-01
5.33485e+02  4.22954e-01  3.45134e+01  1.08410e-01
5.36160e+02  4.25079e-01  3.45672e+01  1.07935e-01
5.38847e+02  4.27214e-01  3.46211e+01  1.07476e-01
5.41548e+02  4.29360e-01  3.46753e+01  1.07040e-01
5.44263e+02  4.31516e-01  3.47296e+01  1.06632e-01
5.46991e+02  4.33684e-01  3.47840e+01  1.06254e-01
5.49732e+02  4.35862e-01  3.48386e+01  1.05911e-01
5.52488e+02  4.38051e-01  3.48933e+01  1.05602e-01
5.55257e+02  4.40252e-01  3.49481e+01  1.05328e-01
5.58041e+02  4.42463e-01  3.50030e+01  1.05087e-01
5.60838e+02  4.44686e-01  3.50580e+01  1.04878e-01
5.63649e+02  4.46920e-01  3.51129e+01  1.04698e-01
5.66474e+02  4.49165e-01  3.51680e+01  1.04542e-01
5.69314e+02  4.51421e-01  3.52230e+01  1.04407e-01
5.72167e+02  4.53689e-01  3.52780e+01  1.04289e-01
5.75035e+02  4.55968e-01  3.53329e+01  1.04183e-01
5.77918e+02  4.58258e-01  3.53878e+01  1.04084e-01
5.80815e+02  4.60560e-01  3.54427e+01  1.03990e-01
5.83726e+02  4.62874e-01  3.54974e+01  1.03894e-01
5.86652e+02  4.65199e-01  3.55520e+01  1.03795e-01
5.89593e+02  4.67537e-01  3.56065e+01  1.03688e-01
5.92548e+02  4.69885e-01  3.56608e+01  1.03571e-01
5.95518e+02  4.72246e-01  3.57150e+01  1.03441e-01
5.98503e+02  4.74619e-01  3.57690e+01  1.03296e-01
6.01503e+02  4.77003e-01  3.58228e+01  1.03135e-01
6.04518e+02  4.79399e-01  3.58764e+01  1.02957e-01
6.07548e+02  4.81808e-01  3.59297e+01  1.02760e-01
6.10594e+02  4.84229e-01  3.59828e+01  1.02544e-01
6.13654e+02  4.86662e-01  3.60356e+01  1.02309e-01
6.16730e+02  4.89107e-01  3.60881e+01  1.02054e-01
6.19822e+02  4.91564e-01  3.61403e+01  1.01779e-01
6.22929e+02  4.94034e-01  3.61923e+01  1.01483e-01
6.26051e+02  4.96516e-01  3.62439e+01  1.01166e-01
6.29189e+02  4.99011e-01  3.62951e+01  1.00827e-01
6.32343e+02  5.01518e-01  3.63461e+01  1.00466e-01
6.35512e+02  5.04038e-01  3.63966e+01  1.00081e-01
6.38698e+02  5.06571e-01  3.64468e+01  9.96714e-02
6.41899e+02  5.09117e-01  3.64967e+01  9.92358e-02
6.45117e+02  5.11675e-01  3.65461e+01  9.87723e-02
6.48351e+02  5.14246e-01  3.65952e+01  9.82793e-02
6.51601e+02  5.16830e-01  3.66439e+01  9.77546e-02
6.54867e+02  5.19427e-01  3.66921e+01  9.71961e-02
6.58149e+02  5.22037e-01  3.67400e+01  9.66017e-02
6.61448e+02  5.24661e-01  3.67874e+01  9.59691e-02
6.64764e+02  5.27297e-01  3.68344e+01  9.52961e-02
6.68096e+02  5.29947e-01  3.68810e+01  9.45804e-02
6.71445e+02  5.32610e-01  3.69272e+01  9.38201e-02
6.74810e+02  5.35287e-01  3.69729e+01  9.30134e-02
6.78193e+02  5.37977e-01  3.70183e+01  9.21586e-02
6.81592e+02  5.40681e-01  3.70631e+01  9.12544e-02
6.85009e+02  5.43398e-01  3.71076e+01  9.02999e-02
6.88442e+02  5.46129e-01  3.71516e+01  8.92945e-02
6.91893e+02  5.48874e-01  3.71951e+01  8.82380e-02
6.95361e+02  5.51632e-01  3.72382e+01  8.71306e-02
6.98847e+02  5.54405e-01  3.72809e+01  8.59732e-02
7.02350e+02  5.57191e-01  3.73231e+01  8.47670e-02
7.05870e+02  5.59992e-01  3.73649e+01  8.35137e-02
7.09409e+02  5.62806e-01  3.74063e+01  8.22156e-02
7.12965e+02  5.65635e-01  3.74472e+01  8.08754e-02
7.16538e+02  5.68478e-01  3.74876e+01  7.94964e-02
7.20130e+02  5.71336e-01  3.75277e+01  7.80824e-02
7.23740e+02  5.74207e-01  3.75672e+01  7.66374e-02
7.27367e+02  5.77094e-01  3.76064e+01  7.51661e-02
7.31013e+02  5.79995e-01  3.76451e+01  7.36736e-02
7.34678e+02  5.82910e-01  3.76833e+01  7.21650e-02
7.38360e+02  5.85840e-01  3.77212e+01  7.06462e-02
7.42061e+02  5.88785e-01  3.77586e+01  6.91229e-02
7.45781e+02  5.91745e-01  3.77955e+01  6.76013e-02
7.49519e+02  5.94720e-01  3.78321e+01  6.60876e-02
7.53276e+02  5.97709e-01  3.78682e+01  6.45881e-02
7.57052e+02  6.00714e-01  3.79039e+01  6.31090e-02
7.60847e+02  6.03734e-01  3.79392e+01  6.16565e-02
7.64660e+02  6.06769e-01  3.79740e+01  6.02366e-02
7.68493e+02  6.09820e-01  3.80084e+01  5.88552e-02
7.72345e+02  6.12886e-01  3.80425e+01  5.75177e-02
7.76217e+02  6.15967e-01  3.80761e+01  5.62291e-02
7.80108e+02  6.19064e-01  3.81093e+01  5.49941e-02
7.84018e+02  6.22176e-01  3.81421e+01  5.38167e-02
7.87948e+02  6.25304e-01  3.81745e+01  5.27002e-02
7.91897e+02  6.28448e-01  3.82065e+01  5.16473e-02
7.95867e+02  6.31608e-01  3.82381e+01  5.06602e-02
7.99856e+02  6.34784e-01  3.82693e+01  4.97398e-02
8.03865e+02  6.37976e-01  3.83001e+01  4.88868e-02
8.07895e+02  6.41183e-01  3.83306e+01  4.81007e-02
8.11944e+02  6.44408e-01  3.83607e+01  4.73804e-02
8.16014e+02  6.47648e-01  3.83904e+01  4.67240e-02
8.20104e+02  6.50905e-01  3.84198e+01  4.61291e-02
8.24215e+02  6.54178e-01  3.84487e+01  4.55925e-02
8.28347e+02  6.57467e-01  3.84774e+01  4.51105e-02
8.32499e+02  6.60774e-01  3.85056e+01  4.46792e-02
8.36672e+02  6.64096e-01  3.85336e+01  4.42941e-02
8.40866e+02  6.67436e-01  3.85612e+01  4.39507e-02
8.45080e+02  6.70793e-01  3.85884e+01  4.36441e-02
8.49316e+02  6.74166e-01  3.86154e+01  4.33696e-02
8.53574e+02  6.77557e-01  3.86420e+01  4.31226e-02
8.57852e+02  6.80964e-01  3.86683e+01  4.28983e-02
8.62152e+02  6.84389e-01  3.86942e+01  4.26923e-02
8.66474e+02  6.87831e-01  3.87199e+01  4.25004e-02
8.70817e+02  6.91291e-01  3.87452e+01  4.23187e-02
8.75182e+02  6.94767e-01  3.87703e+01  4.21435e-02
8.79569e+02  6.98262e-01  3.87951e+01  4.19715e-02
8.83978e+02  7.01774e-01  3.88196e+01  4.17996e-02
8.88409e+02  7.05304e-01  3.88438e+01  4.16253e-02
8.92862e+02  7.08852e-01  3.88677e+01  4.14460e-02
8.97337e+02  7.12417e-01  3.88914e+01  4.12599e-02
9.01835e+02  7.16001e-01  3.89148e+01  4.10651e-02
9.06356e+02  7.19602e-01  3.89379e+01  4.08602e-02
9.10899e+02  7.23222e-01  3.89608e+01  4.06442e-02
9.15465e+02  7.26860e-01  3.89834e+01  4.04161e-02
9.20053e+02  7.30517e-01  3.90058e+01  4.01753e-02
9.24665e+02  7.34192e-01  3.90280e+01  3.99214e-02
9.29300e+02  7.37885e-01  3.90499e+01  3.96542e-02
9.33958e+02  7.41598e-01  3.90716e+01  3.93737e-02
9.38640e+02  7.45329e-01  3.90931e+01  3.90801e-02
9.43345e+02  7.49078e-01  3.91143e+01  3.87738e-02
9.48073e+02  7.52847e-01  3.91353e+01  3.84552e-02
9.52825e+02  7.56635e-01  3.91562e+01  3.81250e-02
9.57602e+02  7.60442e-01  3.91768e+01  3.77840e-02
9.62402e+02  7.64268e-01  3.91972e+01  3.74329e-02
9.67226e+02  7.68113e-01  3.92174e+01  3.70729e-02
9.72074e+02  7.71978e-01  3.92374e+01  3.67049e-02
9.76946e+02  7.75863e-01  3.92573e+01  3.63300e-02
9.81843e+02  7.79767e-01  3.92769e+01  3.59495e-02
9.86765e+02  7.83691e-01  3.92964e+01  3.55646e-02
9.91711e+02  7.87634e-01  3.93156e+01  3.51767e-02
9.96682e+02  7.91598e-01  3.93347e+01  3.47870e-02
1.00168e+03  7.95581e-01  3.93537e+01  3.43970e-02
1.00670e+03  7.99585e-01  3.93724e+01  3.40080e-02
1.01174e+03  8.03609e-01  3.93910e+01  3.36216e-02
1.01682e+03  8.07653e-01  3.94095e+01  3.32391e-02
1.02191e+03  8.11718e-01  3.94277e+01  3.28620e-02
1.02704e+03  8.15803e-01  3.94458e+01  3.24918e-02
1.03218e+03  8.19909e-01  3.94638e+01  3.21298e-02
1.03736e+03  8.24036e-01  3.94816e+01  3.17775e-02
1.04256e+03  8.28183e-01  3.94992e+01  3.14363e-02
1.04778e+03  8.32352e-01  3.95167e+01  3.11075e-02
1.05303e+03  8.36541e-01  3.95341e+01  3.07923e-02
1.05831e+03  8.40752e-01  3.95513e+01  3.04921e-02
1.06362e+03  8.44984e-01  3.95684e+01  3.02079e-02
1.06895e+03  8.49238e-01  3.95853e+01  2.99409e-02
1.07431e+03  8.53513e-01  3.96022e+01  2.96919e-02
1.07969e+03  8.57809e-01  3.96188e+01  2.94620e-02
1.08510e+03  8.62127e-01  3.96354e+01  2.92519e-02
1.09054e+03  8.66468e-01  3.96518e+01  2.90623e-02
1.09601e+03  8.70830e-01  3.96681e+01  2.88937e-02
1.10150e+03  8.75214e-01  3.96842e+01  2.87465e-02
1.10703e+03  8.79620e-01  3.97003e+01  2.86210e-02
1.11257e+03  8.84049e-01  3.97162e+01  2.85174e-02
1.11815e+03  8.88500e-01  3.97320e+01  2.84356e-02
1.12376e+03  8.92974e-01  3.97477e+01  2.83757e-02
1.12939e+03  8.97470e-01  3.97633e+01  2.83372e-02
1.13505e+03  9.01989e-01  3.97787e+01  2.83199e-02
1.14074e+03  9.06531e-01  3.97941e+01  2.83233e-02
1.14646e+03  9.11095e-01  3.98093e+01  2.83467e-02
1.15220e+03  9.15683e-01  3.98244e+01  2.83894e-02
1.15798e+03  9.20294e-01  3.98395e+01  2.84507e-02
1.16378e+03  9.24929e-01  3.98544e+01  2.85297e-02
1.16962e+03  9.29587e-01  3.98692e+01  2.86253e-02
1.17548e+03  9.34268e-01  3.98840e+01  2.87366e-02
1.18137e+03  9.38974e-01  3.98986e+01  2.88625e-02
1.18729e+03  9.43703e-01  3.99131e+01  2.90019e-02
1.19324e+03  9.48456e-01  3.99276e+01  2.91537e-02
1.19923e+03  9.53233e-01  3.99419e+01  2.93167e-02
1.20524e+03  9.58034e-01  3.99562e+01  2.94897e-02
1.21128e+03  9.62859e-01  3.99704e+01  2.96717e-02
1.21735e+03  9.67709e-01  3.99844e+01  2.98614e-02
1.22345e+03  9.72584e-01  3.99984e+01  3.00577e-02
1.22958e+03  9.77483e-01  4.00124e+01  3.02595e-02
1.23575e+03  9.82407e-01  4.00262e+01  3.04658e-02
1.24194e+03  9.87356e-01  4.00400e+01  3.06754e-02
1.24817e+03  9.92330e-01  4.00536e+01  3.08873e-02
1.25442e+03  9.97330e-01  4.00672e+01  3.11007e-02
1.26071e+03  2.46809e+02  4.00808e+01  3.13144e-02
1.26703e+03  7.64954e+02  4.00942e+01  3.15277e-02
1.27338e+03  1.28327e+03  4.01076e+01  3.17397e-02
1.27977e+03  1.80176e+03  4.01209e+01  3.19496e-02
1.28618e+03  2.32041e+03  4.01341e+01  3.21565e-02
1.29263e+03  2.83924e+03  4.01473e+01  3.23599e-02
1.29911e+03  3.35824e+03  4.01604e+01  3.25590e-02
1.30562e+03  3.87741e+03  4.01735e+01  3.27532e-02
1.31216e+03  4.39675e+03  4.01865e+01  3.29420e-02
1.31874e+03  4.91626e+03  4.01994e+01  3.31247e-02
1.32535e+03  5.43594e+03  4.02123e+01  3.33009e-02
1.33199e+03  5.95579e+03  4.02251e+01  3.34702e-02
1.33867e+03  6.47581e+03  4.02378e+01  3.36322e-02
1.34538e+03  6.99600e+03  4.02505e+01  3.37864e-02
1.35212e+03  7.51636e+03  4.02632e+01  3.39325e-02
1.35890e+03  8.03689e+03  4.02757e+01  3.40703e-02
1.36571e+03  8.55759e+03  4.02883e+01  3.41995e-02
1.37256e+03  9.07846e+03  4.03008e+01  3.43199e-02
1.37944e+03  9.59951e+03  4.03132e+01  3.44313e-02
1.38635e+03  1.01207e+04  4.03256e+01  3.45336e-02
1.39330e+03  1.06421e+04  4.03380e+01  3.46266e-02
1.40029e+03  1.11637e+04  4.03503e+01  3.47103e-02
1.40730e+03  1.16854e+04  4.03625e+01  3.47845e-02
1.41436e+03  1.22073e+04  4.03747e+01  3.48494e-02
1.42145e+03  1.27293e+04  4.03869e+01  3.49048e-02
1.42857e+03  1.32516e+04  4.03991e+01  3.49509e-02
1.43573e+03  1.37740e+04  4.04112e+01  3.49876e-02
1.44293e+03  1.42966e+04  4.04232e+01  3.50150e-02
1.45016e+03  1.48193e+04  4.04352e+01  3.50334e-02
1.45743e+03  1.53422e+04  4.04472e+01  3.50427e-02
1.46474e+03  1.58653e+04  4.04592e+01  3.50431e-02
1.47208e+03  1.63886e+04  4.04711e+01  3.50348e-02
1.47946e+03  1.69120e+04  4.04830e+01  3.50181e-02
1.48687e+03  1.74356e+04  4.04948e+01  3.49930e-02
1.49433e+03  1.79594e+04  4.05067e+01  3.49598e-02
1.50182e+03  1.84833e+04  4.05184e+01  3.49189e-02
1.50935e+03  1.90074e+04  4.05302e+01  3.48703e-02
1.51691e+03  1.95317e+04  4.05419e+01  3.48145e-02
1.52452e+03  2.00562e+04  4.05536e+01  3.47516e-02
1.53216e+03  2.05808e+04  4.05653e+01  3.46820e-02
1.53984e+03  2.11056e+04  4.05770e+01  3.46060e-02
1.54756e+03  2.16306e+04  4.05886e+01  3.45239e-02
1.55531e+03  2.21557e+04  4.06002e+01  3.44361e-02
1.56311e+03  2.26810e+04  4.06118e+01  3.43428e-02
1.57094e+03  2.32065e+04  4.06233e+01  3.42444e-02
1.57882e+03  2.37321e+04  4.06348e+01  3.41413e-02
1.58673e+03  2.42580e+04  4.06463e+01  3.40339e-02
1.59469e+03  2.47840e+04  4.06578e+01  3.39223e-02
1.60268e+03  2.53101e+04  4.06693e+01  3.38072e-02
1.61071e+03  2.58365e+04  4.06807e+01  3.36887e-02
1.61879e+03  2.63630e+04  4.06921e+01  3.35672e-02