File: H2O_REF_ISOTHERMS/AIF/h2o_zif8_300K.aif
data_H2O_ZIF8_300K
_exptl_temperature 300
_adsnt_material_id ZIF-8
_simltn_adsorbent_filename 'data.ZIF8_Snurr_rep222'
_units_temperature K
_units_fugacity PA
_units_pressure RELATIVE
_units_loading MOL-PER-KiloGM
_units_qst KiloJ-PER-MOL
_exptl_isotherm_type absolute
_exptl_adsorptive_name 'Water'
_simltn_forcefield_adsorptive 'SPC/E Water; 10ang linear-force shift'
_simltn_forcefield_adsnt 'see adsnt file'

loop_
_adsorp_fugacity
_adsorp_pressure
_adsorp_amount
_adsorp_amount_uncertainty
8.53719e+00  6.75520e-03  9.14992e-06  5.30913e-09
8.62299e+00  6.82309e-03  9.24190e-06  5.36242e-09
8.70965e+00  6.89166e-03  9.33481e-06  5.41625e-09
8.79718e+00  6.96093e-03  9.42864e-06  5.47061e-09
8.88560e+00  7.03089e-03  9.52343e-06  5.52552e-09
8.97490e+00  7.10155e-03  9.61916e-06  5.58098e-09
9.06510e+00  7.17293e-03  9.71586e-06  5.63699e-09
9.15620e+00  7.24502e-03  9.81353e-06  5.69357e-09
9.24823e+00  7.31783e-03  9.91218e-06  5.75071e-09
9.34117e+00  7.39138e-03  1.00118e-05  5.80843e-09
9.43505e+00  7.46567e-03  1.01125e-05  5.86672e-09
9.52988e+00  7.54070e-03  1.02141e-05  5.92560e-09
9.62565e+00  7.61649e-03  1.03168e-05  5.98507e-09
9.72239e+00  7.69304e-03  1.04205e-05  6.04514e-09
9.82010e+00  7.77036e-03  1.05253e-05  6.10580e-09
9.91880e+00  7.84846e-03  1.06311e-05  6.16708e-09
1.00185e+01  7.92734e-03  1.07380e-05  6.22897e-09
1.01192e+01  8.00701e-03  1.08459e-05  6.29147e-09
1.02209e+01  8.08749e-03  1.09549e-05  6.35461e-09
1.03236e+01  8.16877e-03  1.10651e-05  6.41838e-09
1.04273e+01  8.25087e-03  1.11763e-05  6.48278e-09
1.05321e+01  8.33380e-03  1.12887e-05  6.54784e-09
1.06380e+01  8.41756e-03  1.14021e-05  6.61354e-09
1.07449e+01  8.50216e-03  1.15168e-05  6.67990e-09
1.08529e+01  8.58761e-03  1.16325e-05  6.74693e-09
1.09620e+01  8.67392e-03  1.17495e-05  6.81463e-09
1.10721e+01  8.76110e-03  1.18676e-05  6.88300e-09
1.11834e+01  8.84915e-03  1.19869e-05  6.95206e-09
1.12958e+01  8.93809e-03  1.21074e-05  7.02182e-09
1.14093e+01  9.02792e-03  1.22291e-05  7.09227e-09
1.15240e+01  9.11866e-03  1.23521e-05  7.16342e-09
1.16398e+01  9.21031e-03  1.24763e-05  7.23529e-09
1.17568e+01  9.30288e-03  1.26017e-05  7.30788e-09
1.18750e+01  9.39638e-03  1.27284e-05  7.38120e-09
1.19943e+01  9.49082e-03  1.28563e-05  7.45525e-09
1.21148e+01  9.58620e-03  1.29856e-05  7.53004e-09
1.22366e+01  9.68255e-03  1.31161e-05  7.60559e-09
1.23596e+01  9.77987e-03  1.32480e-05  7.68188e-09
1.24838e+01  9.87816e-03  1.33812e-05  7.75895e-09
1.26093e+01  9.97744e-03  1.35157e-05  7.83678e-09
1.27360e+01  1.00777e-02  1.36516e-05  7.91539e-09
1.28640e+01  1.01790e-02  1.37889e-05  7.99479e-09
1.29933e+01  1.02813e-02  1.39275e-05  8.07499e-09
1.31239e+01  1.03846e-02  1.40675e-05  8.15599e-09
1.32558e+01  1.04890e-02  1.42089e-05  8.23779e-09
1.33890e+01  1.05944e-02  1.43518e-05  8.32042e-09
1.35235e+01  1.07009e-02  1.44961e-05  8.40388e-09
1.36595e+01  1.08085e-02  1.46418e-05  8.48817e-09
1.37967e+01  1.09171e-02  1.47890e-05  8.57330e-09
1.39354e+01  1.10268e-02  1.49377e-05  8.65929e-09
1.40754e+01  1.11377e-02  1.50879e-05  8.74613e-09
1.42169e+01  1.12496e-02  1.52396e-05  8.83385e-09
1.43598e+01  1.13627e-02  1.53928e-05  8.92244e-09
1.45041e+01  1.14769e-02  1.55476e-05  9.01192e-09
1.46499e+01  1.15922e-02  1.57039e-05  9.10230e-09
1.47971e+01  1.17087e-02  1.58618e-05  9.19358e-09
1.49458e+01  1.18264e-02  1.60212e-05  9.28577e-09
1.50960e+01  1.19453e-02  1.61823e-05  9.37889e-09
1.52477e+01  1.20653e-02  1.63450e-05  9.47293e-09
1.54010e+01  1.21866e-02  1.65094e-05  9.56792e-09
1.55558e+01  1.23091e-02  1.66754e-05  9.66386e-09
1.57121e+01  1.24328e-02  1.68430e-05  9.76076e-09
1.58700e+01  1.25578e-02  1.70124e-05  9.85862e-09
1.60295e+01  1.26840e-02  1.71834e-05  9.95747e-09
1.61906e+01  1.28115e-02  1.73562e-05  1.00573e-08
1.63533e+01  1.29402e-02  1.75307e-05  1.01581e-08
1.65177e+01  1.30703e-02  1.77070e-05  1.02600e-08
1.66837e+01  1.32016e-02  1.78850e-05  1.03628e-08
1.68514e+01  1.33343e-02  1.80648e-05  1.04667e-08
1.70207e+01  1.34684e-02  1.82465e-05  1.05717e-08
1.71918e+01  1.36037e-02  1.84299e-05  1.06776e-08
1.73646e+01  1.37405e-02  1.86152e-05  1.07847e-08
1.75391e+01  1.38786e-02  1.88024e-05  1.08928e-08
1.77154e+01  1.40180e-02  1.89915e-05  1.10020e-08
1.78934e+01  1.41589e-02  1.91824e-05  1.11122e-08
1.80732e+01  1.43012e-02  1.93753e-05  1.12236e-08
1.82549e+01  1.44450e-02  1.95701e-05  1.13361e-08
1.84383e+01  1.45902e-02  1.97669e-05  1.14497e-08
1.86236e+01  1.47368e-02  1.99657e-05  1.15645e-08
1.88108e+01  1.48849e-02  2.01664e-05  1.16804e-08
1.89999e+01  1.50345e-02  2.03692e-05  1.17975e-08
1.91908e+01  1.51856e-02  2.05740e-05  1.19157e-08
1.93837e+01  1.53383e-02  2.07809e-05  1.20351e-08
1.95785e+01  1.54924e-02  2.09899e-05  1.21557e-08
1.97753e+01  1.56482e-02  2.12009e-05  1.22775e-08
1.99740e+01  1.58054e-02  2.14141e-05  1.24005e-08
2.01747e+01  1.59643e-02  2.16294e-05  1.25248e-08
2.03775e+01  1.61247e-02  2.18469e-05  1.26503e-08
2.05823e+01  1.62868e-02  2.20666e-05  1.27770e-08
2.07892e+01  1.64505e-02  2.22885e-05  1.29051e-08
2.09981e+01  1.66159e-02  2.25126e-05  1.30344e-08
2.12091e+01  1.67829e-02  2.27390e-05  1.31649e-08
2.14223e+01  1.69515e-02  2.29677e-05  1.32968e-08
2.16376e+01  1.71219e-02  2.31986e-05  1.34300e-08
2.18550e+01  1.72940e-02  2.34319e-05  1.35646e-08
2.20747e+01  1.74678e-02  2.36676e-05  1.37005e-08
2.22965e+01  1.76434e-02  2.39056e-05  1.38377e-08
2.25206e+01  1.78207e-02  2.41460e-05  1.39763e-08
2.27470e+01  1.79999e-02  2.43888e-05  1.41163e-08
2.29756e+01  1.81808e-02  2.46340e-05  1.42577e-08
2.32065e+01  1.83635e-02  2.48818e-05  1.44005e-08
2.34397e+01  1.85481e-02  2.51320e-05  1.45447e-08
2.36753e+01  1.87345e-02  2.53847e-05  1.46904e-08
2.39132e+01  1.89228e-02  2.56400e-05  1.48375e-08
2.41536e+01  1.91130e-02  2.58979e-05  1.49861e-08
2.43963e+01  1.93051e-02  2.61583e-05  1.51362e-08
2.46415e+01  1.94991e-02  2.64214e-05  1.52877e-08
2.48891e+01  1.96951e-02  2.66871e-05  1.54408e-08
2.51393e+01  1.98931e-02  2.69555e-05  1.55954e-08
2.53919e+01  2.00930e-02  2.72266e-05  1.57516e-08
2.56471e+01  2.02950e-02  2.75004e-05  1.59093e-08
2.59049e+01  2.04990e-02  2.77770e-05  1.60685e-08
2.61652e+01  2.07050e-02  2.80563e-05  1.62294e-08
2.64282e+01  2.09131e-02  2.83385e-05  1.63919e-08
2.66938e+01  2.11233e-02  2.86235e-05  1.65560e-08
2.69621e+01  2.13356e-02  2.89114e-05  1.67217e-08
2.72331e+01  2.15501e-02  2.92022e-05  1.68891e-08
2.75068e+01  2.17667e-02  2.94959e-05  1.70581e-08
2.77832e+01  2.19855e-02  2.97925e-05  1.72289e-08
2.80624e+01  2.22065e-02  3.00922e-05  1.74013e-08
2.83445e+01  2.24297e-02  3.03948e-05  1.75754e-08
2.86293e+01  2.26551e-02  3.07005e-05  1.77513e-08
2.89171e+01  2.28828e-02  3.10093e-05  1.79290e-08
2.92077e+01  2.31128e-02  3.13212e-05  1.81084e-08
2.95012e+01  2.33451e-02  3.16362e-05  1.82896e-08
2.97977e+01  2.35798e-02  3.19545e-05  1.84726e-08
3.00972e+01  2.38168e-02  3.22759e-05  1.86574e-08
3.03997e+01  2.40562e-02  3.26005e-05  1.88441e-08
3.07052e+01  2.42980e-02  3.29284e-05  1.90326e-08
3.10138e+01  2.45422e-02  3.32596e-05  1.92230e-08
3.13255e+01  2.47889e-02  3.35942e-05  1.94153e-08
3.16403e+01  2.50380e-02  3.39321e-05  1.96095e-08
3.19583e+01  2.52897e-02  3.42734e-05  1.98057e-08
3.22795e+01  2.55439e-02  3.46181e-05  2.00038e-08
3.26039e+01  2.58007e-02  3.49664e-05  2.02038e-08
3.29316e+01  2.60600e-02  3.53181e-05  2.04059e-08
3.32625e+01  2.63219e-02  3.56734e-05  2.06100e-08
3.35968e+01  2.65865e-02  3.60322e-05  2.08161e-08
3.39345e+01  2.68537e-02  3.63947e-05  2.10242e-08
3.42755e+01  2.71237e-02  3.67608e-05  2.12345e-08
3.46200e+01  2.73963e-02  3.71306e-05  2.14468e-08
3.49679e+01  2.76717e-02  3.75041e-05  2.16612e-08
3.53194e+01  2.79498e-02  3.78814e-05  2.18778e-08
3.56743e+01  2.82307e-02  3.82624e-05  2.20965e-08
3.60329e+01  2.85145e-02  3.86473e-05  2.23174e-08
3.63950e+01  2.88011e-02  3.90361e-05  2.25404e-08
3.67608e+01  2.90906e-02  3.94288e-05  2.27657e-08
3.71302e+01  2.93830e-02  3.98255e-05  2.29933e-08
3.75034e+01  2.96784e-02  4.02262e-05  2.32231e-08
3.78803e+01  2.99767e-02  4.06309e-05  2.34552e-08
3.82610e+01  3.02780e-02  4.10396e-05  2.36896e-08
3.86456e+01  3.05823e-02  4.14525e-05  2.39263e-08
3.90339e+01  3.08897e-02  4.18695e-05  2.41654e-08
3.94262e+01  3.12002e-02  4.22908e-05  2.44068e-08
3.98225e+01  3.15138e-02  4.27163e-05  2.46507e-08
4.02227e+01  3.18306e-02  4.31460e-05  2.48969e-08
4.06270e+01  3.21505e-02  4.35801e-05  2.51456e-08
4.10353e+01  3.24737e-02  4.40186e-05  2.53968e-08
4.14477e+01  3.28001e-02  4.44615e-05  2.56505e-08
4.18642e+01  3.31298e-02  4.49088e-05  2.59067e-08
4.22850e+01  3.34628e-02  4.53607e-05  2.61654e-08
4.27099e+01  3.37992e-02  4.58171e-05  2.64267e-08
4.31392e+01  3.41389e-02  4.62781e-05  2.66906e-08
4.35727e+01  3.44821e-02  4.67437e-05  2.69572e-08
4.40107e+01  3.48287e-02  4.72141e-05  2.72263e-08
4.44530e+01  3.51788e-02  4.76891e-05  2.74981e-08
4.48997e+01  3.55324e-02  4.81690e-05  2.77727e-08
4.53510e+01  3.58896e-02  4.86537e-05  2.80499e-08
4.58068e+01  3.62503e-02  4.91433e-05  2.83299e-08
4.62671e+01  3.66147e-02  4.96378e-05  2.86127e-08
4.67321e+01  3.69828e-02  5.01373e-05  2.88982e-08
4.72018e+01  3.73545e-02  5.06418e-05  2.91866e-08
4.76762e+01  3.77300e-02  5.11514e-05  2.94779e-08
4.81553e+01  3.81092e-02  5.16662e-05  2.97720e-08
4.86393e+01  3.84923e-02  5.21861e-05  3.00691e-08
4.91281e+01  3.88792e-02  5.27113e-05  3.03691e-08
4.96219e+01  3.92701e-02  5.32417e-05  3.06721e-08
5.01206e+01  3.96648e-02  5.37775e-05  3.09780e-08
5.06243e+01  4.00635e-02  5.43188e-05  3.12870e-08
5.11331e+01  4.04662e-02  5.48654e-05  3.15991e-08
5.16470e+01  4.08730e-02  5.54176e-05  3.19143e-08
5.21660e+01  4.12839e-02  5.59753e-05  3.22325e-08
5.26903e+01  4.16988e-02  5.65387e-05  3.25539e-08
5.32199e+01  4.21180e-02  5.71077e-05  3.28785e-08
5.37547e+01  4.25414e-02  5.76825e-05  3.32063e-08
5.42950e+01  4.29690e-02  5.82631e-05  3.35374e-08
5.48407e+01  4.34010e-02  5.88495e-05  3.38717e-08
5.53918e+01  4.38372e-02  5.94418e-05  3.42093e-08
5.59485e+01  4.42779e-02  6.00401e-05  3.45503e-08
5.65108e+01  4.47230e-02  6.06444e-05  3.48946e-08
5.70787e+01  4.51726e-02  6.12549e-05  3.52423e-08
5.76524e+01  4.56266e-02  6.18714e-05  3.55935e-08
5.82318e+01  4.60853e-02  6.24942e-05  3.59481e-08
5.88170e+01  4.65486e-02  6.31233e-05  3.63063e-08
5.94082e+01  4.70165e-02  6.37587e-05  3.66680e-08
6.00052e+01  4.74891e-02  6.44005e-05  3.70332e-08
6.06083e+01  4.79665e-02  6.50488e-05  3.74021e-08
6.12174e+01  4.84487e-02  6.57037e-05  3.77745e-08
6.18327e+01  4.89357e-02  6.63651e-05  3.81507e-08
6.24541e+01  4.94276e-02  6.70332e-05  3.85306e-08
6.30818e+01  4.99245e-02  6.77080e-05  3.89142e-08
6.37157e+01  5.04264e-02  6.83897e-05  3.93016e-08
6.43561e+01  5.09333e-02  6.90782e-05  3.96928e-08
6.50029e+01  5.14453e-02  6.97737e-05  4.00879e-08
6.56562e+01  5.19624e-02  7.04762e-05  4.04869e-08
6.63160e+01  5.24848e-02  7.11857e-05  4.08898e-08
6.69825e+01  5.30124e-02  7.19025e-05  4.12967e-08
6.76557e+01  5.35453e-02  7.26264e-05  4.17076e-08
6.83357e+01  5.40836e-02  7.33577e-05  4.21225e-08
6.90224e+01  5.46273e-02  7.40963e-05  4.25415e-08
6.97161e+01  5.51764e-02  7.48424e-05  4.29646e-08
7.04168e+01  5.57311e-02  7.55960e-05  4.33919e-08
7.11245e+01  5.62914e-02  7.63572e-05  4.38234e-08
7.18393e+01  5.68573e-02  7.71261e-05  4.42592e-08
7.25613e+01  5.74288e-02  7.79027e-05  4.46992e-08
7.32906e+01  5.80062e-02  7.86872e-05  4.51436e-08
7.40271e+01  5.85893e-02  7.94796e-05  4.55923e-08
7.47711e+01  5.91783e-02  8.02800e-05  4.60455e-08
7.55226e+01  5.97732e-02  8.10885e-05  4.65031e-08
7.62816e+01  6.03741e-02  8.19052e-05  4.69652e-08
7.70482e+01  6.09810e-02  8.27300e-05  4.74318e-08
7.78226e+01  6.15941e-02  8.35632e-05  4.79030e-08
7.86047e+01  6.22133e-02  8.44049e-05  4.83788e-08
7.93947e+01  6.28387e-02  8.52550e-05  4.88593e-08
8.01926e+01  6.34704e-02  8.61137e-05  4.93446e-08
8.09986e+01  6.41085e-02  8.69810e-05  4.98345e-08
8.18126e+01  6.47530e-02  8.78571e-05  5.03293e-08
8.26349e+01  6.54040e-02  8.87421e-05  5.08290e-08
8.34654e+01  6.60615e-02  8.96360e-05  5.13335e-08
8.43042e+01  6.67257e-02  9.05389e-05  5.18430e-08
8.51515e+01  6.73965e-02  9.14510e-05  5.23575e-08
8.60073e+01  6.80740e-02  9.23722e-05  5.28770e-08
8.68717e+01  6.87584e-02  9.33027e-05  5.34016e-08
8.77447e+01  6.94497e-02  9.42427e-05  5.39313e-08
8.86266e+01  7.01479e-02  9.51921e-05  5.44663e-08
8.95173e+01  7.08531e-02  9.61512e-05  5.50064e-08
9.04169e+01  7.15654e-02  9.71199e-05  5.55519e-08
9.13257e+01  7.22849e-02  9.80984e-05  5.61027e-08
9.22435e+01  7.30116e-02  9.90868e-05  5.66588e-08
9.31706e+01  7.37457e-02  1.00085e-04  5.72204e-08
9.41069e+01  7.44871e-02  1.01094e-04  5.77875e-08
9.50527e+01  7.52359e-02  1.02112e-04  5.83602e-08
9.60080e+01  7.59923e-02  1.03141e-04  5.89384e-08
9.69729e+01  7.67563e-02  1.04180e-04  5.95223e-08
9.79475e+01  7.75280e-02  1.05230e-04  6.01118e-08
9.89319e+01  7.83075e-02  1.06291e-04  6.07072e-08
9.99262e+01  7.90948e-02  1.07362e-04  6.13083e-08
1.00930e+02  7.98900e-02  1.08444e-04  6.19153e-08
1.01945e+02  8.06932e-02  1.09537e-04  6.25282e-08
1.02969e+02  8.15045e-02  1.10641e-04  6.31471e-08
1.04004e+02  8.23239e-02  1.11756e-04  6.37720e-08
1.05050e+02  8.31516e-02  1.12882e-04  6.44030e-08
1.06105e+02  8.39876e-02  1.14020e-04  6.50402e-08
1.07172e+02  8.48321e-02  1.15169e-04  6.56835e-08
1.08249e+02  8.56850e-02  1.16330e-04  6.63332e-08
1.09337e+02  8.65465e-02  1.17503e-04  6.69891e-08
1.10436e+02  8.74166e-02  1.18687e-04  6.76514e-08
1.11545e+02  8.82955e-02  1.19884e-04  6.83202e-08
1.12666e+02  8.91833e-02  1.21092e-04  6.89955e-08
1.13799e+02  9.00800e-02  1.22313e-04  6.96773e-08
1.14942e+02  9.09857e-02  1.23546e-04  7.03658e-08
1.16098e+02  9.19005e-02  1.24792e-04  7.10609e-08
1.17264e+02  9.28245e-02  1.26050e-04  7.17628e-08
1.18443e+02  9.37578e-02  1.27321e-04  7.24715e-08
1.19633e+02  9.47005e-02  1.28605e-04  7.31871e-08
1.20836e+02  9.56527e-02  1.29902e-04  7.39096e-08
1.22050e+02  9.66144e-02  1.31212e-04  7.46391e-08
1.23277e+02  9.75859e-02  1.32535e-04  7.53757e-08
1.24516e+02  9.85671e-02  1.33872e-04  7.61195e-08
1.25767e+02  9.95582e-02  1.35222e-04  7.68704e-08
1.27031e+02  1.00559e-01  1.36585e-04  7.76286e-08
1.28308e+02  1.01570e-01  1.37963e-04  7.83942e-08
1.29597e+02  1.02592e-01  1.39354e-04  7.91671e-08
1.30900e+02  1.03623e-01  1.40760e-04  7.99476e-08
1.32215e+02  1.04665e-01  1.42180e-04  8.07356e-08
1.33544e+02  1.05718e-01  1.43614e-04  8.15312e-08
1.34886e+02  1.06781e-01  1.45063e-04  8.23344e-08
1.36242e+02  1.07854e-01  1.46526e-04  8.31455e-08
1.37611e+02  1.08939e-01  1.48004e-04  8.39644e-08
1.38994e+02  1.10034e-01  1.49498e-04  8.47912e-08
1.40391e+02  1.11141e-01  1.51006e-04  8.56259e-08
1.41802e+02  1.12258e-01  1.52530e-04  8.64687e-08
1.43227e+02  1.13387e-01  1.54069e-04  8.73197e-08
1.44667e+02  1.14527e-01  1.55623e-04  8.81788e-08
1.46121e+02  1.15679e-01  1.57194e-04  8.90462e-08
1.47589e+02  1.16842e-01  1.58780e-04  8.99220e-08
1.49072e+02  1.18017e-01  1.60382e-04  9.08062e-08
1.50571e+02  1.19204e-01  1.62001e-04  9.16989e-08
1.52084e+02  1.20402e-01  1.63636e-04  9.26002e-08
1.53612e+02  1.21613e-01  1.65288e-04  9.35102e-08
1.55156e+02  1.22836e-01  1.66956e-04  9.44289e-08
1.56715e+02  1.24071e-01  1.68641e-04  9.53565e-08
1.58290e+02  1.25319e-01  1.70344e-04  9.62929e-08
1.59881e+02  1.26579e-01  1.72063e-04  9.72384e-08
1.61488e+02  1.27852e-01  1.73800e-04  9.81929e-08
1.63111e+02  1.29138e-01  1.75555e-04  9.91566e-08
1.64750e+02  1.30436e-01  1.77328e-04  1.00130e-07
1.66406e+02  1.31748e-01  1.79118e-04  1.01112e-07
1.68079e+02  1.33073e-01  1.80927e-04  1.02103e-07
1.69768e+02  1.34411e-01  1.82754e-04  1.03105e-07
1.71474e+02  1.35763e-01  1.84599e-04  1.04115e-07
1.73197e+02  1.37128e-01  1.86464e-04  1.05136e-07
1.74938e+02  1.38507e-01  1.88347e-04  1.06166e-07
1.76696e+02  1.39900e-01  1.90249e-04  1.07206e-07
1.78472e+02  1.41307e-01  1.92171e-04  1.08256e-07
1.80266e+02  1.42728e-01  1.94112e-04  1.09316e-07
1.82077e+02  1.44164e-01  1.96073e-04  1.10386e-07
1.83907e+02  1.45614e-01  1.98054e-04  1.11467e-07
1.85756e+02  1.47078e-01  2.00054e-04  1.12557e-07
1.87622e+02  1.48557e-01  2.02076e-04  1.13659e-07
1.89508e+02  1.50051e-01  2.04117e-04  1.14770e-07
1.91413e+02  1.51560e-01  2.06180e-04  1.15892e-07
1.93336e+02  1.53085e-01  2.08263e-04  1.17025e-07
1.95279e+02  1.54624e-01  2.10368e-04  1.18169e-07
1.97242e+02  1.56179e-01  2.12494e-04  1.19324e-07
1.99224e+02  1.57750e-01  2.14642e-04  1.20489e-07
2.01227e+02  1.59337e-01  2.16811e-04  1.21666e-07
2.03249e+02  1.60939e-01  2.19003e-04  1.22854e-07
2.05292e+02  1.62558e-01  2.21217e-04  1.24053e-07
2.07355e+02  1.64193e-01  2.23453e-04  1.25264e-07
2.09439e+02  1.65845e-01  2.25713e-04  1.26486e-07
2.11544e+02  1.67513e-01  2.27995e-04  1.27719e-07
2.13670e+02  1.69197e-01  2.30300e-04  1.28965e-07
2.15817e+02  1.70899e-01  2.32629e-04  1.30222e-07
2.17986e+02  1.72618e-01  2.34981e-04  1.31491e-07
2.20177e+02  1.74355e-01  2.37358e-04  1.32772e-07
2.22390e+02  1.76108e-01  2.39759e-04  1.34066e-07
2.24625e+02  1.77880e-01  2.42184e-04  1.35371e-07
2.26882e+02  1.79669e-01  2.44634e-04  1.36689e-07
2.29163e+02  1.81476e-01  2.47109e-04  1.38020e-07
2.31466e+02  1.83302e-01  2.49609e-04  1.39363e-07
2.33792e+02  1.85145e-01  2.52134e-04  1.40719e-07
2.36142e+02  1.87008e-01  2.54685e-04  1.42088e-07
2.38515e+02  1.88889e-01  2.57263e-04  1.43469e-07
2.40912e+02  1.90789e-01  2.59866e-04  1.44864e-07
2.43333e+02  1.92708e-01  2.62496e-04  1.46272e-07
2.45779e+02  1.94647e-01  2.65153e-04  1.47693e-07
2.48249e+02  1.96605e-01  2.67837e-04  1.49128e-07
2.50744e+02  1.98582e-01  2.70549e-04  1.50576e-07
2.53264e+02  2.00580e-01  2.73288e-04  1.52038e-07
2.55809e+02  2.02598e-01  2.76055e-04  1.53513e-07
2.58380e+02  2.04636e-01  2.78850e-04  1.55003e-07
2.60977e+02  2.06695e-01  2.81674e-04  1.56507e-07
2.63600e+02  2.08774e-01  2.84527e-04  1.58025e-07
2.66249e+02  2.10874e-01  2.87409e-04  1.59557e-07
2.68925e+02  2.12996e-01  2.90320e-04  1.61104e-07
2.71628e+02  2.15138e-01  2.93261e-04  1.62665e-07
2.74357e+02  2.17303e-01  2.96232e-04  1.64241e-07
2.77115e+02  2.19489e-01  2.99234e-04  1.65832e-07
2.79900e+02  2.21697e-01  3.02266e-04  1.67438e-07
2.82713e+02  2.23928e-01  3.05329e-04  1.69059e-07
2.85554e+02  2.26181e-01  3.08424e-04  1.70695e-07
2.88424e+02  2.28456e-01  3.11550e-04  1.72347e-07
2.91323e+02  2.30755e-01  3.14708e-04  1.74014e-07
2.94251e+02  2.33076e-01  3.17899e-04  1.75697e-07
2.97208e+02  2.35421e-01  3.21122e-04  1.77396e-07
3.00195e+02  2.37790e-01  3.24378e-04  1.79111e-07
3.03212e+02  2.40183e-01  3.27668e-04  1.80843e-07
3.06259e+02  2.42599e-01  3.30991e-04  1.82590e-07
3.09337e+02  2.45040e-01  3.34348e-04  1.84354e-07
3.12446e+02  2.47506e-01  3.37740e-04  1.86135e-07
3.15586e+02  2.49996e-01  3.41167e-04  1.87932e-07
3.18758e+02  2.52512e-01  3.44628e-04  1.89747e-07
3.21961e+02  2.55052e-01  3.48125e-04  1.91579e-07
3.25197e+02  2.57619e-01  3.51658e-04  1.93428e-07
3.28465e+02  2.60211e-01  3.55228e-04  1.95294e-07
3.31767e+02  2.62830e-01  3.58834e-04  1.97178e-07
3.35101e+02  2.65474e-01  3.62477e-04  1.99080e-07
3.38469e+02  2.68146e-01  3.66157e-04  2.01000e-07
3.41870e+02  2.70844e-01  3.69876e-04  2.02938e-07
3.45306e+02  2.73570e-01  3.73632e-04  2.04895e-07
3.48777e+02  2.76323e-01  3.77427e-04  2.06870e-07
3.52282e+02  2.79103e-01  3.81261e-04  2.08863e-07
3.55822e+02  2.81912e-01  3.85135e-04  2.10876e-07
3.59398e+02  2.84749e-01  3.89049e-04  2.12908e-07
3.63010e+02  2.87615e-01  3.93002e-04  2.14959e-07
3.66659e+02  2.90509e-01  3.96997e-04  2.17030e-07
3.70344e+02  2.93433e-01  4.01032e-04  2.19120e-07
3.74066e+02  2.96386e-01  4.05110e-04  2.21231e-07
3.77825e+02  2.99369e-01  4.09229e-04  2.23361e-07
3.81622e+02  3.02382e-01  4.13391e-04  2.25512e-07
3.85458e+02  3.05426e-01  4.17595e-04  2.27683e-07
3.89332e+02  3.08500e-01  4.21843e-04  2.29876e-07
3.93245e+02  3.11605e-01  4.26135e-04  2.32089e-07
3.97197e+02  3.14741e-01  4.30472e-04  2.34323e-07
4.01189e+02  3.17909e-01  4.34853e-04  2.36579e-07
4.05221e+02  3.21109e-01  4.39279e-04  2.38857e-07
4.09293e+02  3.24341e-01  4.43751e-04  2.41157e-07
4.13407e+02  3.27606e-01  4.48269e-04  2.43479e-07
4.17561e+02  3.30904e-01  4.52834e-04  2.45823e-07
4.21758e+02  3.34234e-01  4.57447e-04  2.48190e-07
4.25997e+02  3.37599e-01  4.62107e-04  2.50580e-07
4.30278e+02  3.40997e-01  4.66815e-04  2.52994e-07
4.34602e+02  3.44430e-01  4.71572e-04  2.55431e-07
4.38970e+02  3.47897e-01  4.76379e-04  2.57892e-07
4.43382e+02  3.51400e-01  4.81235e-04  2.60377e-07
4.47838e+02  3.54937e-01  4.86142e-04  2.62886e-07
4.52339e+02  3.58510e-01  4.91099e-04  2.65420e-07
4.56885e+02  3.62120e-01  4.96109e-04  2.67979e-07
4.61477e+02  3.65765e-01  5.01170e-04  2.70564e-07
4.66115e+02  3.69448e-01  5.06284e-04  2.73174e-07
4.70799e+02  3.73168e-01  5.11451e-04  2.75811e-07
4.75531e+02  3.76925e-01  5.16672e-04  2.78473e-07
4.80310e+02  3.80720e-01  5.21947e-04  2.81163e-07
4.85137e+02  3.84553e-01  5.27277e-04  2.83879e-07
4.90013e+02  3.88425e-01  5.32663e-04  2.86623e-07
4.94938e+02  3.92336e-01  5.38105e-04  2.89395e-07
4.99912e+02  3.96286e-01  5.43604e-04  2.92195e-07
5.04936e+02  4.00277e-01  5.49160e-04  2.95023e-07
5.10011e+02  4.04307e-01  5.54774e-04  2.97881e-07
5.15136e+02  4.08379e-01  5.60447e-04  3.00768e-07
5.20314e+02  4.12491e-01  5.66179e-04  3.03685e-07
5.25543e+02  4.16645e-01  5.71971e-04  3.06633e-07
5.30825e+02  4.20841e-01  5.77824e-04  3.09611e-07
5.36160e+02  4.25079e-01  5.83738e-04  3.12621e-07
5.41548e+02  4.29360e-01  5.89715e-04  3.15663e-07
5.46991e+02  4.33684e-01  5.95754e-04  3.18737e-07
5.52488e+02  4.38051e-01  6.01856e-04  3.21844e-07
5.58041e+02  4.42463e-01  6.08022e-04  3.24984e-07
5.63649e+02  4.46920e-01  6.14254e-04  3.28158e-07
5.69314e+02  4.51421e-01  6.20551e-04  3.31367e-07
5.75035e+02  4.55968e-01  6.26914e-04  3.34612e-07
5.80815e+02  4.60560e-01  6.33344e-04  3.37892e-07
5.86652e+02  4.65199e-01  6.39843e-04  3.41208e-07
5.92548e+02  4.69885e-01  6.46409e-04  3.44562e-07
5.98503e+02  4.74619e-01  6.53046e-04  3.47954e-07
6.04518e+02  4.79399e-01  6.59752e-04  3.51384e-07
6.10594e+02  4.84229e-01  6.66529e-04  3.54854e-07
6.16730e+02  4.89107e-01  6.73378e-04  3.58364e-07
6.22929e+02  4.94034e-01  6.80300e-04  3.61915e-07
6.29189e+02  4.99011e-01  6.87295e-04  3.65508e-07
6.35512e+02  5.04038e-01  6.94364e-04  3.69144e-07
6.41899e+02  5.09117e-01  7.01509e-04  3.72823e-07
6.48351e+02  5.14246e-01  7.08730e-04  3.76547e-07
6.54867e+02  5.19427e-01  7.16027e-04  3.80317e-07
6.61448e+02  5.24661e-01  7.23402e-04  3.84133e-07
6.68096e+02  5.29947e-01  7.30857e-04  3.87998e-07
6.74810e+02  5.35287e-01  7.38390e-04  3.91911e-07
6.81592e+02  5.40681e-01  7.46004e-04  3.95874e-07
6.88442e+02  5.46129e-01  7.53700e-04  3.99889e-07
6.95361e+02  5.51632e-01  7.61478e-04  4.03956e-07
7.02350e+02  5.57191e-01  7.69340e-04  4.08078e-07
7.09409e+02  5.62806e-01  7.77286e-04  4.12255e-07
7.16538e+02  5.68478e-01  7.85318e-04  4.16489e-07
7.23740e+02  5.74207e-01  7.93436e-04  4.20781e-07
7.31013e+02  5.79995e-01  8.01642e-04  4.25134e-07
7.38360e+02  5.85840e-01  8.09937e-04  4.29548e-07
7.45781e+02  5.91745e-01  8.18321e-04  4.34026e-07
7.53276e+02  5.97709e-01  8.26795e-04  4.38570e-07
7.60847e+02  6.03734e-01  8.35362e-04  4.43181e-07
7.68493e+02  6.09820e-01  8.44022e-04  4.47861e-07
7.76217e+02  6.15967e-01  8.52776e-04  4.52614e-07
7.84018e+02  6.22176e-01  8.61625e-04  4.57440e-07
7.91897e+02  6.28448e-01  8.70571e-04  4.62343e-07
7.99856e+02  6.34784e-01  8.79614e-04  4.67325e-07
8.07895e+02  6.41183e-01  8.88757e-04  4.72388e-07
8.16014e+02  6.47648e-01  8.97999e-04  4.77536e-07
8.24215e+02  6.54178e-01  9.07343e-04  4.82772e-07
8.32499e+02  6.60774e-01  9.16790e-04  4.88098e-07
8.40866e+02  6.67436e-01  9.26341e-04  4.93517e-07
8.49316e+02  6.74166e-01  9.35997e-04  4.99034e-07
8.57852e+02  6.80964e-01  9.45761e-04  5.04652e-07
8.66474e+02  6.87831e-01  9.55632e-04  5.10374e-07
8.75182e+02  6.94767e-01  9.65613e-04  5.16205e-07
8.83978e+02  7.01774e-01  9.75704e-04  5.22150e-07
8.92862e+02  7.08852e-01  9.85909e-04  5.28212e-07
9.01835e+02  7.16001e-01  9.96227e-04  5.34396e-07
9.10899e+02  7.23222e-01  1.00666e-03  5.40708e-07
9.20053e+02  7.30517e-01  1.01721e-03  5.47152e-07
9.29300e+02  7.37885e-01  1.02788e-03  5.53735e-07
9.38640e+02  7.45329e-01  1.03867e-03  5.60462e-07
9.48073e+02  7.52847e-01  1.04958e-03  5.67340e-07
9.57602e+02  7.60442e-01  1.06062e-03  5.74376e-07
9.67226e+02  7.68113e-01  1.07178e-03  5.81576e-07
9.76946e+02  7.75863e-01  1.08306e-03  5.88948e-07
9.86765e+02  7.83691e-01  1.09448e-03  5.96501e-07
9.96682e+02  7.91598e-01  1.10603e-03  6.04241e-07
1.00670e+03  7.99585e-01  1.11771e-03  6.12179e-07
1.01682e+03  8.07653e-01  1.12952e-03  6.20324e-07
1.02704e+03  8.15803e-01  1.14147e-03  6.28686e-07
1.03736e+03  8.24036e-01  1.15356e-03  6.37276e-07
1.04778e+03  8.32352e-01  1.16579e-03  6.46104e-07
1.05831e+03  8.40752e-01  1.17816e-03  6.55183e-07
1.06895e+03  8.49238e-01  1.19067e-03  6.64526e-07
1.07969e+03  8.57809e-01  1.20334e-03  6.74145e-07
1.09054e+03  8.66468e-01  1.21615e-03  6.84056e-07
1.10150e+03  8.75214e-01  1.22911e-03  6.94273e-07
1.11257e+03  8.84049e-01  1.24223e-03  7.04812e-07
1.12376e+03  8.92974e-01  1.25550e-03  7.15691e-07
1.13505e+03  9.01989e-01  1.26893e-03  7.26927e-07
1.14646e+03  9.11095e-01  1.28252e-03  7.38540e-07
1.15798e+03  9.20294e-01  1.29628e-03  7.50550e-07
1.16962e+03  9.29587e-01  1.31020e-03  7.62978e-07
1.18137e+03  9.38974e-01  1.32429e-03  7.75847e-07
1.19324e+03  9.48456e-01  1.33855e-03  7.89182e-07
1.20524e+03  9.58034e-01  1.35299e-03  8.03008e-07
1.21735e+03  9.67709e-01  1.36760e-03  8.17352e-07
1.22958e+03  9.77483e-01  1.38239e-03  8.32243e-07
1.24194e+03  9.87356e-01  1.39737e-03  8.47711e-07
1.25442e+03  9.97330e-01  1.41254e-03  8.63789e-07
1.26703e+03  7.64954e+02  1.42789e-03  8.80512e-07
1.27977e+03  1.80176e+03  1.44344e-03  8.97914e-07
1.29263e+03  2.83924e+03  1.45919e-03  9.16035e-07
1.30562e+03  3.87741e+03  1.47514e-03  9.34915e-07
1.31874e+03  4.91626e+03  1.49129e-03  9.54597e-07
1.33199e+03  5.95579e+03  1.50765e-03  9.75127e-07
1.34538e+03  6.99600e+03  1.52422e-03  9.96553e-07
1.35890e+03  8.03689e+03  1.54101e-03  1.01893e-06
1.37256e+03  9.07846e+03  1.55802e-03  1.04230e-06
1.38635e+03  1.01207e+04  1.57525e-03  1.06673e-06
1.40029e+03  1.11637e+04  1.59271e-03  1.09228e-06
1.41436e+03  1.22073e+04  1.61041e-03  1.11901e-06
1.42857e+03  1.32516e+04  1.62835e-03  1.14699e-06
1.44293e+03  1.42966e+04  1.64653e-03  1.17630e-06
1.45743e+03  1.53422e+04  1.66497e-03  1.20701e-06
1.47208e+03  1.63886e+04  1.68365e-03  1.23920e-06
1.48687e+03  1.74356e+04  1.70261e-03  1.27296e-06
1.50182e+03  1.84833e+04  1.72182e-03  1.30838e-06
1.51691e+03  1.95317e+04  1.74132e-03  1.34557e-06
1.53216e+03  2.05808e+04  1.76109e-03  1.38464e-06
1.54756e+03  2.16306e+04  1.78116e-03  1.42572e-06
1.56311e+03  2.26810e+04  1.80152e-03  1.46893e-06
1.57882e+03  2.37321e+04  1.82220e-03  1.51443e-06
1.59469e+03  2.47840e+04  1.84319e-03  1.56240e-06
1.61071e+03  2.58365e+04  1.86451e-03  1.61305e-06
1.62690e+03  2.68897e+04  1.88617e-03  1.66661e-06
1.64325e+03  2.79436e+04  1.90819e-03  1.72341e-06
1.65977e+03  2.89982e+04  1.93058e-03  1.78381e-06
1.67645e+03  3.00534e+04  1.95338e-03  1.84831e-06
1.69330e+03  3.11094e+04  1.97659e-03  1.91757e-06
1.71031e+03  3.21660e+04  2.00025e-03  1.99247e-06
1.72750e+03  3.32234e+04  2.02440e-03  2.07424e-06
1.74486e+03  3.42814e+04  2.04908e-03  2.16461e-06
1.76240e+03  3.53401e+04  2.07435e-03  2.26605e-06
1.78011e+03  3.63995e+04  2.10029e-03  2.38215e-06
1.79800e+03  3.74596e+04  2.12697e-03  2.51811e-06
1.81607e+03  3.85204e+04  2.15452e-03  2.68150e-06
1.83432e+03  3.95818e+04  2.18309e-03  2.88327e-06
1.85276e+03  4.06440e+04  2.21287e-03  3.13910e-06
1.87138e+03  4.17068e+04  2.24412e-03  3.47108e-06
1.89019e+03  4.27703e+04  2.27716e-03  3.90957e-06
1.90919e+03  4.38345e+04  2.31244e-03  4.49542e-06
1.92837e+03  4.48994e+04  2.35051e-03  5.28238e-06
1.94775e+03  4.59650e+04  2.39214e-03  6.34023e-06
1.96733e+03  4.70312e+04  2.43829e-03  7.75920e-06
1.98710e+03  4.80981e+04  2.49029e-03  9.65632e-06
2.00707e+03  4.91657e+04  2.54986e-03  1.21845e-05
2.02724e+03  5.02340e+04  2.61929e-03  1.55449e-05
2.04762e+03  5.13029e+04  2.70161e-03  2.00039e-05
2.06820e+03  5.23725e+04  2.80087e-03  2.59148e-05
2.08898e+03  5.34428e+04  2.92243e-03  3.37478e-05
2.10998e+03  5.45137e+04  3.07343e-03  4.41288e-05
2.13118e+03  5.55853e+04  3.26339e-03  5.78917e-05
2.15260e+03  5.66575e+04  3.50501e-03  7.61476e-05
2.17423e+03  5.77304e+04  3.81523e-03  1.00378e-04
2.19609e+03  5.88040e+04  4.21670e-03  1.32556e-04
2.21816e+03  5.98781e+04  4.73971e-03  1.75316e-04
2.24045e+03  6.09530e+04  5.42480e-03  2.32166e-04
2.26297e+03  6.20285e+04  6.32636e-03  3.07782e-04
2.28571e+03  6.31046e+04  7.51738e-03  4.08392e-04
2.30868e+03  6.41813e+04  9.09606e-03  5.42286e-04
2.33188e+03  6.52587e+04  1.11947e-02  7.20486e-04
2.35532e+03  6.63367e+04  1.39923e-02  9.57626e-04
2.37899e+03  6.74153e+04  1.77312e-02  1.27311e-03
2.40290e+03  6.84946e+04  2.27417e-02  1.69262e-03
2.42705e+03  6.95744e+04  2.94762e-02  2.25011e-03
2.45144e+03  7.06549e+04  3.85591e-02  2.99048e-03
2.47608e+03  7.17360e+04  5.08607e-02  3.97335e-03
2.50096e+03  7.28177e+04  6.76113e-02  5.27892e-03
2.52610e+03  7.39000e+04  9.05827e-02  7.01770e-03
2.55149e+03  7.49829e+04  1.22398e-01  9.36425e-03
2.57713e+03  7.60664e+04  1.67119e-01  1.26410e-02
2.60303e+03  7.71504e+04  2.31058e-01  1.75783e-02
2.62919e+03  7.82351e+04  3.23825e-01  2.36323e-02
2.65562e+03  7.93204e+04  4.64982e-01  3.48760e-02
2.68230e+03  8.04062e+04  6.87550e-01  5.69241e-02
2.70926e+03  8.14927e+04  1.05858e+00  1.09890e-01
2.73649e+03  8.25797e+04  1.69121e+00  4.65364e-01

loop_
_desorp_fugacity
_desorp_pressure
_desorp_amount
_desorp_amount_uncertainty
2.18513e+03  5.82671e+04  2.31640e+01  1.30377e+00
2.19609e+03  5.88040e+04  2.33312e+01  5.71571e-01
2.20709e+03  5.93410e+04  2.33642e+01  3.35675e-01
2.21816e+03  5.98781e+04  2.35144e+01  2.94442e-01
2.22928e+03  6.04155e+04  2.36256e+01  1.69174e-01
2.24045e+03  6.09530e+04  2.37111e+01  9.69410e-02
2.25168e+03  6.14906e+04  2.37781e+01  6.78629e-02
2.26297e+03  6.20285e+04  2.38326e+01  5.31721e-02
2.27431e+03  6.25664e+04  2.38758e+01  4.33568e-02
2.28571e+03  6.31046e+04  2.39177e+01  3.34937e-02
2.29717e+03  6.36429e+04  2.39545e+01  2.69873e-02
2.30868e+03  6.41813e+04  2.39878e+01  2.27153e-02
2.32025e+03  6.47199e+04  2.40185e+01  1.95200e-02
2.33188e+03  6.52587e+04  2.40474e+01  1.71143e-02
2.34357e+03  6.57976e+04  2.40748e+01  1.53026e-02
2.35532e+03  6.63367e+04  2.41010e+01  1.39244e-02
2.36713e+03  6.68759e+04  2.41264e+01  1.28741e-02
2.37899e+03  6.74153e+04  2.41509e+01  1.20932e-02
2.39092e+03  6.79549e+04  2.41748e+01  1.15191e-02
2.40290e+03  6.84946e+04  2.41981e+01  1.11051e-02
2.41494e+03  6.90344e+04  2.42210e+01  1.08157e-02
2.42705e+03  6.95744e+04  2.42434e+01  1.06236e-02
2.43922e+03  7.01146e+04  2.42655e+01  1.05073e-02
2.45144e+03  7.06549e+04  2.42872e+01  1.04503e-02
2.46373e+03  7.11954e+04  2.43086e+01  1.04399e-02
2.47608e+03  7.17360e+04  2.43298e+01  1.04662e-02
2.48849e+03  7.22768e+04  2.43507e+01  1.05216e-02
2.50096e+03  7.28177e+04  2.43714e+01  1.06004e-02
2.51350e+03  7.33588e+04  2.43919e+01  1.06982e-02
2.52610e+03  7.39000e+04  2.44121e+01  1.08116e-02
2.53876e+03  7.44413e+04  2.44323e+01  1.09380e-02
2.55149e+03  7.49829e+04  2.44522e+01  1.10755e-02
2.56428e+03  7.55245e+04  2.44720e+01  1.12225e-02
2.57713e+03  7.60664e+04  2.44916e+01  1.13780e-02
2.59005e+03  7.66083e+04  2.45111e+01  1.15410e-02
2.60303e+03  7.71504e+04  2.45305e+01  1.17110e-02
2.61608e+03  7.76927e+04  2.45498e+01  1.18875e-02
2.62919e+03  7.82351e+04  2.45689e+01  1.20701e-02
2.64237e+03  7.87777e+04  2.45879e+01  1.22585e-02
2.65562e+03  7.93204e+04  2.46068e+01  1.24526e-02
2.66893e+03  7.98632e+04  2.46255e+01  1.26520e-02
2.68230e+03  8.04062e+04  2.46442e+01  1.28567e-02
2.69575e+03  8.09494e+04  2.46628e+01  1.30665e-02
2.70926e+03  8.14927e+04  2.46812e+01  1.32811e-02
2.72284e+03  8.20361e+04  2.46996e+01  1.35005e-02
2.73649e+03  8.25797e+04  2.47179e+01  1.37243e-02
2.75021e+03  8.31234e+04  2.47361e+01  1.39522e-02
2.76399e+03  8.36672e+04  2.47541e+01  1.41838e-02
2.77785e+03  8.42112e+04  2.47721e+01  1.44189e-02
2.79177e+03  8.47554e+04  2.47900e+01  1.46568e-02
2.80577e+03  8.52997e+04  2.48079e+01  1.48970e-02
2.81983e+03  8.58441e+04  2.48256e+01  1.51390e-02
2.83396e+03  8.63887e+04  2.48432e+01  1.53820e-02
2.84817e+03  8.69334e+04  2.48608e+01  1.56252e-02
2.86245e+03  8.74782e+04  2.48783e+01  1.58679e-02
2.87679e+03  8.80232e+04  2.48956e+01  1.61091e-02
2.89121e+03  8.85684e+04  2.49129e+01  1.63480e-02
2.90571e+03  8.91137e+04  2.49302e+01  1.65836e-02
2.92027e+03  8.96591e+04  2.49473e+01  1.68149e-02
2.93491e+03  9.02046e+04  2.49643e+01  1.70409e-02
2.94962e+03  9.07503e+04  2.49813e+01  1.72607e-02
2.96441e+03  9.12962e+04  2.49982e+01  1.74732e-02
2.97926e+03  9.18421e+04  2.50150e+01  1.76773e-02
2.99420e+03  9.23883e+04  2.50317e+01  1.78723e-02
3.00921e+03  9.29345e+04  2.50483e+01  1.80572e-02
3.02429e+03  9.34809e+04  2.50649e+01  1.82310e-02
3.03945e+03  9.40274e+04  2.50813e+01  1.83930e-02
3.05468e+03  9.45741e+04  2.50977e+01  1.85426e-02
3.07000e+03  9.51209e+04  2.51140e+01  1.86789e-02
3.08539e+03  9.56678e+04  2.51302e+01  1.88014e-02
3.10085e+03  9.62149e+04  2.51464e+01  1.89097e-02
3.11639e+03  9.67621e+04  2.51624e+01  1.90034e-02
3.13201e+03  9.73095e+04  2.51784e+01  1.90822e-02
3.14771e+03  9.78570e+04  2.51943e+01  1.91459e-02
3.16349e+03  9.84046e+04  2.52101e+01  1.91943e-02
3.17935e+03  9.89524e+04  2.52259e+01  1.92277e-02
3.19529e+03  9.95003e+04  2.52415e+01  1.92460e-02
3.21130e+03  1.00048e+05  2.52571e+01  1.92494e-02
3.22740e+03  1.00596e+05  2.52726e+01  1.92384e-02
3.24358e+03  1.01145e+05  2.52880e+01  1.92133e-02
3.25983e+03  1.01693e+05  2.53034e+01  1.91746e-02
3.27617e+03  1.02242e+05  2.53186e+01  1.91228e-02
3.29260e+03  1.02790e+05  2.53338e+01  1.90587e-02
3.30910e+03  1.03339e+05  2.53490e+01  1.89829e-02
3.32569e+03  1.03888e+05  2.53640e+01  1.88963e-02
3.34236e+03  1.04437e+05  2.53790e+01  1.87996e-02
3.35911e+03  1.04987e+05  2.53939e+01  1.86937e-02
3.37595e+03  1.05536e+05  2.54088e+01  1.85795e-02
3.39287e+03  1.06086e+05  2.54236e+01  1.84579e-02
3.40988e+03  1.06635e+05  2.54383e+01  1.83298e-02
3.42697e+03  1.07185e+05  2.54529e+01  1.81962e-02
3.44415e+03  1.07735e+05  2.54675e+01  1.80580e-02
3.46141e+03  1.08285e+05  2.54820e+01  1.79161e-02
3.47876e+03  1.08835e+05  2.54965e+01  1.77714e-02
3.49620e+03  1.09386e+05  2.55109e+01  1.76248e-02
3.51372e+03  1.09936e+05  2.55253e+01  1.74770e-02
3.53134e+03  1.10487e+05  2.55395e+01  1.73287e-02
3.54904e+03  1.11037e+05  2.55538e+01  1.71808e-02
3.56683e+03  1.11588e+05  2.55680e+01  1.70338e-02
3.58471e+03  1.12139e+05  2.55821e+01  1.68883e-02
3.60267e+03  1.12690e+05  2.55962e+01  1.67449e-02
3.62073e+03  1.13242e+05  2.56102e+01  1.66039e-02
3.63888e+03  1.13793e+05  2.56242e+01  1.64657e-02
3.65712e+03  1.14345e+05  2.56381e+01  1.63306e-02
3.67545e+03  1.14896e+05  2.56520e+01  1.61988e-02
3.69388e+03  1.15448e+05  2.56659e+01  1.60704e-02
3.71239e+03  1.16000e+05  2.56797e+01  1.59455e-02
3.73100e+03  1.16552e+05  2.56934e+01  1.58240e-02
3.74970e+03  1.17104e+05  2.57072e+01  1.57059e-02
3.76850e+03  1.17657e+05  2.57208e+01  1.55911e-02
3.78739e+03  1.18209e+05  2.57345e+01  1.54792e-02
3.80637e+03  1.18762e+05  2.57481e+01  1.53702e-02
3.82545e+03  1.19315e+05  2.57617e+01  1.52636e-02
3.84463e+03  1.19867e+05  2.57752e+01  1.51593e-02
3.86390e+03  1.20420e+05  2.57887e+01  1.50567e-02
3.88327e+03  1.20974e+05  2.58021e+01  1.49555e-02
3.90273e+03  1.21527e+05  2.58156e+01  1.48554e-02
3.92229e+03  1.22080e+05  2.58290e+01  1.47559e-02
3.94195e+03  1.22634e+05  2.58423e+01  1.46566e-02
3.96171e+03  1.23188e+05  2.58556e+01  1.45571e-02
3.98157e+03  1.23741e+05  2.58689e+01  1.44571e-02
4.00153e+03  1.24295e+05  2.58822e+01  1.43561e-02
4.02159e+03  1.24850e+05  2.58954e+01  1.42538e-02
4.04174e+03  1.25404e+05  2.59086e+01  1.41499e-02
4.06200e+03  1.25958e+05  2.59217e+01  1.40441e-02
4.08236e+03  1.26513e+05  2.59348e+01  1.39361e-02
4.10283e+03  1.27067e+05  2.59479e+01  1.38258e-02
4.12339e+03  1.27622e+05  2.59610e+01  1.37130e-02
4.14406e+03  1.28177e+05  2.59740e+01  1.35976e-02
4.16483e+03  1.28732e+05  2.59869e+01  1.34795e-02
4.18571e+03  1.29287e+05  2.59999e+01  1.33587e-02
4.20669e+03  1.29843e+05  2.60128e+01  1.32352e-02
4.22778e+03  1.30398e+05  2.60257e+01  1.31092e-02
4.24897e+03  1.30954e+05  2.60385e+01  1.29808e-02
4.27027e+03  1.31509e+05  2.60513e+01  1.28502e-02
4.29167e+03  1.32065e+05  2.60641e+01  1.27177e-02
4.31318e+03  1.32621e+05  2.60768e+01  1.25836e-02
4.33480e+03  1.33177e+05  2.60895e+01  1.24481e-02
4.35653e+03  1.33734e+05  2.61021e+01  1.23117e-02
4.37837e+03  1.34290e+05  2.61147e+01  1.21749e-02
4.40032e+03  1.34846e+05  2.61273e+01  1.20381e-02
4.42237e+03  1.35403e+05  2.61398e+01  1.19018e-02
4.44454e+03  1.35960e+05  2.61523e+01  1.17664e-02
4.46682e+03  1.36517e+05  2.61647e+01  1.16326e-02
4.48921e+03  1.37074e+05  2.61771e+01  1.15009e-02
4.51171e+03  1.37631e+05  2.61895e+01  1.13718e-02
4.53433e+03  1.38189e+05  2.62018e+01  1.12458e-02
4.55705e+03  1.38746e+05  2.62141e+01  1.11234e-02
4.57990e+03  1.39304e+05  2.62263e+01  1.10051e-02
4.60285e+03  1.39861e+05  2.62385e+01  1.08915e-02
4.62593e+03  1.40419e+05  2.62507e+01  1.07828e-02
4.64911e+03  1.40977e+05  2.62628e+01  1.06794e-02
4.67242e+03  1.41536e+05  2.62749e+01  1.05818e-02
4.69584e+03  1.42094e+05  2.62869e+01  1.04900e-02
4.71938e+03  1.42652e+05  2.62989e+01  1.04043e-02
4.74303e+03  1.43211e+05  2.63109e+01  1.03248e-02
4.76681e+03  1.43770e+05  2.63228e+01  1.02515e-02
4.79070e+03  1.44328e+05  2.63347e+01  1.01844e-02
4.81471e+03  1.44887e+05  2.63465e+01  1.01234e-02
4.83885e+03  1.45446e+05  2.63583e+01  1.00682e-02
4.86310e+03  1.46006e+05  2.63700e+01  1.00187e-02
4.88748e+03  1.46565e+05  2.63818e+01  9.97456e-03
4.91198e+03  1.47125e+05  2.63934e+01  9.93533e-03
4.93660e+03  1.47684e+05  2.64051e+01  9.90064e-03
4.96134e+03  1.48244e+05  2.64167e+01  9.87001e-03
4.98621e+03  1.48804e+05  2.64282e+01  9.84296e-03
5.01121e+03  1.49364e+05  2.64397e+01  9.81896e-03
5.03632e+03  1.49924e+05  2.64512e+01  9.79746e-03
5.06157e+03  1.50485e+05  2.64627e+01  9.77792e-03
5.08694e+03  1.51045e+05  2.64741e+01  9.75979e-03
5.11244e+03  1.51606e+05  2.64855e+01  9.74251e-03
5.13806e+03  1.52166e+05  2.64968e+01  9.72556e-03
5.16382e+03  1.52727e+05  2.65081e+01  9.70841e-03
5.18970e+03  1.53288e+05  2.65194e+01  9.69058e-03
5.21572e+03  1.53849e+05  2.65307e+01  9.67159e-03
5.24186e+03  1.54411e+05  2.65419e+01  9.65101e-03
5.26814e+03  1.54972e+05  2.65530e+01  9.62845e-03
5.29454e+03  1.55534e+05  2.65642e+01  9.60353e-03
5.32108e+03  1.56095e+05  2.65753e+01  9.57593e-03
5.34775e+03  1.56657e+05  2.65864e+01  9.54538e-03
5.37456e+03  1.57219e+05  2.65974e+01  9.51161e-03
5.40150e+03  1.57781e+05  2.66085e+01  9.47444e-03
5.42857e+03  1.58343e+05  2.66194e+01  9.43370e-03
5.45578e+03  1.58905e+05  2.66304e+01  9.38927e-03
5.48313e+03  1.59468e+05  2.66413e+01  9.34106e-03
5.51062e+03  1.60030e+05  2.66522e+01  9.28904e-03
5.53824e+03  1.60593e+05  2.66631e+01  9.23319e-03
5.56600e+03  1.61156e+05  2.66739e+01  9.17356e-03
5.59390e+03  1.61719e+05  2.66847e+01  9.11021e-03
5.62194e+03  1.62282e+05  2.66955e+01  9.04325e-03
5.65012e+03  1.62845e+05  2.67063e+01  8.97281e-03
5.67844e+03  1.63409e+05  2.67170e+01  8.89907e-03
5.70690e+03  1.63972e+05  2.67277e+01  8.82223e-03
5.73551e+03  1.64536e+05  2.67383e+01  8.74253e-03
5.76426e+03  1.65100e+05  2.67489e+01  8.66023e-03
5.79315e+03  1.65664e+05  2.67595e+01  8.57563e-03
5.82219e+03  1.66228e+05  2.67701e+01  8.48904e-03
5.85137e+03  1.66792e+05  2.67806e+01  8.40083e-03
5.88070e+03  1.67356e+05  2.67911e+01  8.31138e-03
5.91018e+03  1.67920e+05  2.68016e+01  8.22108e-03
5.93981e+03  1.68485e+05  2.68121e+01  8.13038e-03
5.96958e+03  1.69050e+05  2.68225e+01  8.03973e-03
5.99950e+03  1.69614e+05  2.68328e+01  7.94962e-03
6.02957e+03  1.70179e+05  2.68432e+01  7.86055e-03
6.05980e+03  1.70744e+05  2.68535e+01  7.77305e-03
6.09017e+03  1.71310e+05  2.68638e+01  7.68767e-03
6.12070e+03  1.71875e+05  2.68741e+01  7.60497e-03
6.15138e+03  1.72440e+05  2.68843e+01  7.52554e-03
6.18221e+03  1.73006e+05  2.68945e+01  7.44997e-03
6.21320e+03  1.73572e+05  2.69046e+01  7.37885e-03
6.24435e+03  1.74137e+05  2.69147e+01  7.31280e-03
6.27565e+03  1.74703e+05  2.69248e+01  7.25241e-03
6.30710e+03  1.75270e+05  2.69349e+01  7.19827e-03
6.33872e+03  1.75836e+05  2.69449e+01  7.15095e-03
6.37049e+03  1.76402e+05  2.69549e+01  7.11100e-03
6.40242e+03  1.76968e+05  2.69649e+01  7.07894e-03
6.43451e+03  1.77535e+05  2.69748e+01  7.05525e-03
6.46677e+03  1.78102e+05  2.69847e+01  7.04035e-03
6.49918e+03  1.78669e+05  2.69946e+01  7.03462e-03
6.53176e+03  1.79236e+05  2.70044e+01  7.03838e-03
6.56450e+03  1.79803e+05  2.70142e+01  7.05187e-03
6.59741e+03  1.80370e+05  2.70240e+01  7.07526e-03
6.63048e+03  1.80937e+05  2.70338e+01  7.10867e-03
6.66371e+03  1.81505e+05  2.70435e+01  7.15211e-03
6.69711e+03  1.82072e+05  2.70532e+01  7.20555e-03
6.73068e+03  1.82640e+05  2.70628e+01  7.26887e-03
6.76442e+03  1.83208e+05  2.70724e+01  7.34187e-03
6.79833e+03  1.83776e+05  2.70820e+01  7.42432e-03
6.83240e+03  1.84344e+05  2.70916e+01  7.51590e-03
6.86665e+03  1.84912e+05  2.71011e+01  7.61626e-03
6.90107e+03  1.85480e+05  2.71106e+01  7.72501e-03
6.93566e+03  1.86049e+05  2.71201e+01  7.84171e-03
6.97043e+03  1.86617e+05  2.71296e+01  7.96590e-03
7.00537e+03  1.87186e+05  2.71390e+01  8.09709e-03
7.04048e+03  1.87755e+05  2.71484e+01  8.23479e-03
7.07577e+03  1.88324e+05  2.71578e+01  8.37849e-03
7.11124e+03  1.88893e+05  2.71671e+01  8.52768e-03
7.14688e+03  1.89462e+05  2.71764e+01  8.68184e-03
7.18271e+03  1.90032e+05  2.71857e+01  8.84047e-03
7.21871e+03  1.90601e+05  2.71950e+01  9.00305e-03
7.25490e+03  1.91171e+05  2.72042e+01  9.16911e-03
7.29126e+03  1.91740e+05  2.72135e+01  9.33815e-03
7.32781e+03  1.92310e+05  2.72227e+01  9.50972e-03
7.36454e+03  1.92880e+05  2.72319e+01  9.68334e-03
7.40145e+03  1.93450e+05  2.72410e+01  9.85860e-03
7.43855e+03  1.94020e+05  2.72502e+01  1.00350e-02
7.47584e+03  1.94591e+05  2.72593e+01  1.02123e-02
7.51331e+03  1.95161e+05  2.72684e+01  1.03899e-02
7.55097e+03  1.95732e+05  2.72775e+01  1.05676e-02
7.58882e+03  1.96302e+05  2.72866e+01  1.07449e-02
7.62686e+03  1.96873e+05  2.72956e+01  1.09215e-02
7.66509e+03  1.97444e+05  2.73047e+01  1.10971e-02
7.70351e+03  1.98015e+05  2.73137e+01  1.12713e-02
7.74213e+03  1.98586e+05  2.73227e+01  1.14438e-02
7.78093e+03  1.99158e+05  2.73317e+01  1.16144e-02
7.81994e+03  1.99729e+05  2.73407e+01  1.17827e-02
7.85913e+03  2.00300e+05  2.73497e+01  1.19484e-02
7.89853e+03  2.00872e+05  2.73586e+01  1.21114e-02
7.93812e+03  2.01444e+05  2.73676e+01  1.22713e-02
7.97791e+03  2.02016e+05  2.73765e+01  1.24279e-02
8.01790e+03  2.02588e+05  2.73854e+01  1.25809e-02
8.05809e+03  2.03160e+05  2.73943e+01  1.27302e-02
8.09848e+03  2.03732e+05  2.74032e+01  1.28754e-02
8.13907e+03  2.04305e+05  2.74121e+01  1.30164e-02
8.17987e+03  2.04877e+05  2.74210e+01  1.31529e-02
8.22087e+03  2.05450e+05  2.74299e+01  1.32848e-02
8.26208e+03  2.06022e+05  2.74387e+01  1.34119e-02
8.30349e+03  2.06595e+05  2.74476e+01  1.35338e-02
8.34512e+03  2.07168e+05  2.74564e+01  1.36505e-02
8.38695e+03  2.07741e+05  2.74652e+01  1.37617e-02
8.42899e+03  2.08315e+05  2.74741e+01  1.38673e-02
8.47124e+03  2.08888e+05  2.74829e+01  1.39670e-02
8.51370e+03  2.09462e+05  2.74917e+01  1.40607e-02
8.55637e+03  2.10035e+05  2.75005e+01  1.41482e-02
8.59926e+03  2.10609e+05  2.75093e+01  1.42292e-02
8.64237e+03  2.11183e+05  2.75181e+01  1.43037e-02
8.68569e+03  2.11757e+05  2.75269e+01  1.43714e-02
8.72922e+03  2.12331e+05  2.75356e+01  1.44322e-02
8.77298e+03  2.12905e+05  2.75444e+01  1.44859e-02
8.81695e+03  2.13479e+05  2.75531e+01  1.45322e-02
8.86115e+03  2.14054e+05  2.75619e+01  1.45711e-02
8.90557e+03  2.14628e+05  2.75706e+01  1.46024e-02
8.95021e+03  2.15203e+05  2.75794e+01  1.46258e-02
8.99507e+03  2.15778e+05  2.75881e+01  1.46413e-02
9.04016e+03  2.16353e+05  2.75968e+01  1.46487e-02
9.08547e+03  2.16928e+05  2.76056e+01  1.46478e-02
9.13101e+03  2.17503e+05  2.76143e+01  1.46385e-02
9.17678e+03  2.18078e+05  2.76230e+01  1.46206e-02
9.22278e+03  2.18654e+05  2.76317e+01  1.45941e-02
9.26901e+03  2.19229e+05  2.76404e+01  1.45588e-02
9.31547e+03  2.19805e+05  2.76491e+01  1.45145e-02